Folder: Experiment-Files (part 87)

File: DataFile2021-07-25_063839.csv
Test ID:,Date Tested:,Time:,Test Type:,Diameter Avg. (mm):,Cyl. Corr. Factor:,Height (mm):,Age (days):,Weight (kN):,Break Type:,Ramp Rate (MPa/s):,Load at Break (kN):,Stress at Break (MPa):
12,7/25/2021,06:38,Cylinder,150,1,300,0,3.89,3,0.32,596.36,33.75
Sample Time,Load (kN),Stress (MPa),Long. Strain,Trans. Strain,Chan1 Deflection (mm),Chan2 Deflection (mm)
0:0:16.683,6.44992,0.365422,0,0.000885,0,0
0:0:17.180,10.4978,0.592949,0,0.000885,0,0
0:0:17.678,11.085,0.627423,0,0.000885,0,0
0:0:18.175,14.0163,0.792897,0,0.000885,0,0
0:0:18.674,15.9513,0.903213,0,0.000885,0,0
0:0:19.172,18.767,1.06179,0,0.000885,0,0
0:0:19.668,21.7607,1.23416,0,0.000885,0,0
0:0:20.168,25.7463,1.45479,0,0.000885,0,0
0:0:20.664,27.0986,1.53064,0,0.000885,0,0
0:0:21.163,29.385,1.66164,0,0.000885,0,0
0:0:21.660,31.3778,1.77885,0,0.000885,0,0
0:0:22.160,33.6063,1.90295,0,0.000885,0,0
0:0:22.668,35.3055,1.99948,0,0.000885,0,0
0:0:23.174,37.5964,2.13048,0,0.000885,0,0
0:0:23.680,40.2342,2.27527,0,0.000885,0,0
0:0:24.178,42.6985,2.41317,0,0.000885,0,0
0:0:24.676,44.8692,2.53727,0,0.000885,0,0
0:0:25.174,47.507,2.68896,0,0.000885,0,0
0:0:25.672,49.5576,2.80617,0,0.000885,0,0
0:0:26.170,51.0834,2.8889,0,0.000885,0,0
0:0:26.667,53.7834,3.04059,0,0.000885,0,0
0:0:27.165,57.6534,3.26122,0,0.000885,0,0
0:0:27.670,60.6426,3.43359,0,0.000885,0,0
0:0:28.178,63.7519,3.60596,0,0.000885,0,0
0:0:28.682,67.6841,3.83349,0,0.000885,0,0
0:0:29.181,70.9091,4.01275,0,0.000885,0,0
0:0:29.679,74.8947,4.24028,0,0.000885,0,0
0:0:30.176,78.7068,4.45401,0,0.000885,0,0
0:0:30.674,81.8161,4.63328,0,0.000885,0,0
0:0:31.171,86.1576,4.87459,0,0.000885,0,0
0:0:31.670,90.1477,5.10212,0,0.000885,0,0
0:0:32.176,93.4883,5.28828,0,0.000885,0,0
0:0:32.683,97.4205,5.51581,0,0.000885,0,0
0:0:33.187,101.348,5.73644,0,0.000885,0,0
0:0:33.686,104.982,5.94328,0,0.000885,0,0
0:0:34.183,108.15,6.12254,0,0.000885,0,0
0:0:34.682,112.727,6.37765,0,0.000885,0,0
0:0:35.180,117.771,6.66723,0,0.000885,0,0
0:0:35.678,121.583,6.88097,0,0.000885,0,0
0:0:36.176,126.628,7.16365,0,0.000885,0,0
0:0:36.674,131.494,7.43944,0,0.000885,0,0
0:0:37.178,134.194,7.59113,0,0.000885,0,0
0:0:37.687,137.886,7.80487,0,0.000885,0,0
0:0:38.192,141.289,7.99792,0,0.000885,0,0
0:0:38.692,144.34,8.17029,0,0.000885,0,0
0:0:39.192,146.097,8.26681,0,0.000885,0,0
0:0:39.691,148.21,8.38402,0,0.000885,0,0
0:0:40.189,150.79,8.53571,0,0.000885,0,0
0:0:40.684,152.961,8.65292,0,0.000885,0,0
0:0:41.184,155.892,8.81839,0,0.000885,0,0
0:0:41.682,159.825,9.04592,0,0.000885,0,0
0:0:42.180,162.169,9.17692,0,0.000885,0,0
0:0:42.687,165.1,9.3424,0,0.000885,0,0
0:0:43.194,168.739,9.54924,0,0.000885,0,0
0:0:43.699,172.782,9.77677,0,0.000885,0,0
0:0:44.196,175.425,9.92845,0,0.000885,0,0
0:0:44.695,178.827,10.1215,0,0.000885,0,0
0:0:45.192,182.284,10.3146,0,0.000885,0,0
0:0:45.690,184.512,10.4387,0,0.000885,0,0
0:0:46.186,188.329,10.6593,0,0.000885,0,0
0:0:46.685,191.669,10.8455,0,0.000885,0,0
0:0:47.178,194.369,10.9971,0,0.000885,0,0
0:0:47.682,198.062,11.2109,0,0.000885,0,0
0:0:48.184,201.758,11.4177,0,0.000885,0,0
0:0:48.686,204.689,11.5832,0,0.000885,0,0
0:0:49.178,207.332,11.7349,0,0.000885,0,0
0:0:49.672,209.912,11.8797,0,0.000885,0,0
0:0:50.166,212.785,12.0382,0,0.000885,0,0
0:0:50.661,215.659,12.2037,0,0.000885,0,0
0:0:51.155,218.941,12.3899,0,0.000885,0,0
0:0:51.649,221.815,12.5554,0,0.000885,0,0
0:0:52.153,224.337,12.6932,0,0.000885,0,0
0:0:52.655,227.856,12.8932,0,0.000885,0,0
0:0:53.156,231.668,13.1069,0,0.000885,0,0
0:0:53.651,234.016,13.2448,0,0.000885,0,0
0:0:54.146,237.299,13.431,0,0.000885,0,0
0:0:54.638,241.054,13.6378,0,0.000885,0,0
0:0:55.145,243.34,13.7688,0,0.000885,0,0
0:0:55.649,246.565,13.955,0,0.000885,0,0
0:0:56.145,249.559,14.1205,0,0.000885,0,0
0:0:56.636,252.081,14.2653,0,0.000885,0,0
0:0:57.133,255.421,14.4514,0,0.000885,0,0
0:0:57.637,259.002,14.6583,0,0.000885,0,0
0:0:58.138,261.64,14.803,0,0.000885,0,0
0:0:58.638,265.158,15.003,0,0.000885,0,0
0:0:59.132,268.855,15.2167,0,0.000885,0,0
0:0:59.626,271.435,15.3615,0,0.000885,0,0
0:1:0.120,274.486,15.5339,0,0.000885,0,0
0:1:0.635,277.885,15.7269,0,0.000885,0,0
0:1:1.150,281.523,15.9338,0,0.000885,0,0
0:1:1.644,283.81,16.0579,0,0.000885,0,0
0:1:2.147,286.683,16.2234,0,0.000885,0,0
0:1:2.650,289.793,16.3957,0,0.000885,0,0
0:1:3.154,292.666,16.5612,0,0.000885,0,0
0:1:3.654,296.243,16.7612,0,0.000885,0,0
0:1:4.149,299.41,16.9404,0,0.000885,0,0
0:1:4.644,301.99,17.0921,0,0.000885,0,0
0:1:5.146,304.863,17.2507,0,0.000885,0,0
0:1:5.638,308.03,17.4299,0,0.000885,0,0
0:1:6.132,310.615,17.5747,0,0.000885,0,0
0:1:6.635,314.133,17.7747,0,0.000885,0,0
0:1:7.140,317.416,17.9608,0,0.000885,0,0
0:1:7.643,320.819,18.1539,0,0.000885,0,0
0:1:8.145,323.163,18.2849,0,0.000885,0,0
0:1:8.638,327.096,18.5124,0,0.000885,0,0
0:1:9.133,329.675,18.6572,0,0.000885,0,0
0:1:9.628,332.371,18.8089,0,0.000885,0,0
0:1:10.122,336.068,19.0157,0,0.000885,0,0
0:1:10.616,338.825,19.1743,0,0.000885,0,0
0:1:11.111,341.699,19.3329,0,0.000885,0,0
0:1:11.605,345.097,19.526,0,0.000885,0,0
0:1:12.104,348.265,19.7052,0,0.000885,0,0
0:1:12.609,351.143,19.8707,0,0.000885,0,0
0:1:13.110,354.719,20.0706,0,0.000885,0,0
0:1:13.610,358.353,20.2775,0,0.000885,0,0
0:1:14.105,360.817,20.4154,0,0.000885,0,0
0:1:14.600,363.518,20.574,0,0.000885,0,0
0:1:15.093,367.094,20.7739,0,0.000885,0,0
0:1:15.589,369.207,20.8911,0,0.000885,0,0
0:1:16.082,372.725,21.0911,0,0.000885,0,0
0:1:16.577,375.83,21.2703,0,0.000885,0,0
0:1:17.070,378.646,21.4289,0,0.000885,0,0
0:1:17.574,381.582,21.5944,0,0.000885,0,0
0:1:18.076,385.158,21.7943,0,0.000885,0,0
0:1:18.575,387.738,21.9391,0,0.000885,0,0
0:1:19.070,390.554,22.0977,0,0.000885,0,0
0:1:19.564,394.366,22.3183,0,0.000885,0,0
0:1:20.058,396.772,22.4493,0,0.000885,0,0
0:1:20.552,400.585,22.67,0,0.000885,0,0
0:1:21.046,403.689,22.8423,0,0.000885,0,0
0:1:21.538,405.98,22.9733,0,0.000885,0,0
0:1:22.045,409.441,23.1664,0,0.000885,0,0
0:1:22.546,413.075,23.3732,0,0.000885,0,0
0:1:23.047,415.419,23.5111,0,0.000885,0,0
0:1:23.552,418.88,23.7042,0,0.000885,0,0
0:1:24.046,421.754,23.8696,0,0.000885,0,0
0:1:24.539,425.214,24.0627,0,0.000885,0,0
0:1:25.042,427.327,24.1799,0,0.000885,0,0
0:1:25.537,431.375,24.4074,0,0.000885,0,0
0:1:26.041,435.187,24.6281,0,0.000885,0,0
0:1:26.545,437.767,24.7729,0,0.000885,0,0
0:1:27.042,440.405,24.9245,0,0.000885,0,0
0:1:27.549,443.692,25.1107,0,0.000885,0,0
0:1:28.050,446.094,25.2417,0,0.000885,0,0
0:1:28.549,449.733,25.4485,0,0.000885,0,0
0:1:29.042,453.131,25.6416,0,0.000885,0,0
0:1:29.537,455.302,25.7657,0,0.000885,0,0
0:1:30.040,458.883,25.9657,0,0.000885,0,0
0:1:30.533,462.344,26.1656,0,0.000885,0,0
0:1:31.027,464.866,26.3035,0,0.000885,0,0
0:1:31.522,467.797,26.469,0,0.000885,0,0
0:1:32.016,471.2,26.662,0,0.000885,0,0
0:1:32.516,473.896,26.8137,0,0.000885,0,0
0:1:33.020,477.65,27.0274,0,0.000885,0,0
0:1:33.522,481.053,27.2205,0,0.000885,0,0
0:1:34.016,484.394,27.4136,0,0.000885,0,0
0:1:34.512,486.213,27.517,0,0.000885,0,0
0:1:35.004,489.496,27.7031,0,0.000885,0,0
0:1:35.499,492.369,27.8617,0,0.000885,0,0
0:1:35.992,495.599,28.0479,0,0.000885,0,0
0:1:36.486,498.472,28.2065,0,0.000885,0,0
0:1:36.992,502.049,28.4133,0,0.000885,0,0
0:1:37.495,504.571,28.5512,0,0.000885,0,0
0:1:37.996,508.031,28.7511,0,0.000885,0,0
0:1:38.489,510.789,28.9028,0,0.000885,0,0
0:1:38.982,513.543,29.0614,0,0.000885,0,0
0:1:39.478,517.826,29.3027,0,0.000885,0,0
0:1:39.971,521.051,29.4889,0,0.000885,0,0
0:1:40.465,522.871,29.5854,0,0.000885,0,0
0:1:40.961,526.153,29.7716,0,0.000885,0,0
0:1:41.456,530.023,29.9922,0,0.000885,0,0
0:1:41.955,532.897,30.1577,0,0.000885,0,0
0:1:42.459,535.77,30.3162,0,0.000885,0,0
0:1:42.959,539.116,30.5093,0,0.000885,0,0
0:1:43.459,541.522,30.6472,0,0.000885,0,0
0:1:43.955,545.214,30.854,0,0.000885,0,0
0:1:44.449,547.794,30.9988,0,0.000885,0,0
0:1:44.951,550.143,31.1298,0,0.000885,0,0
0:1:45.443,553.252,31.3091,0,0.000885,0,0
0:1:45.939,557.002,31.5228,0,0.000885,0,0
0:1:46.443,559.466,31.6607,0,0.000885,0,0
0:1:46.936,562.691,31.84,0,0.000885,0,0
0:1:47.442,565.978,32.0261,0,0.000885,0,0
0:1:47.943,568.087,32.1503,0,0.000885,0,0
0:1:48.444,571.374,32.3364,0,0.000885,0,0
0:1:48.938,574.777,32.5226,0,0.000885,0,0
0:1:49.456,577.708,32.6949,0,0.000885,0,0
0:1:49.949,580.288,32.8397,0,0.000885,0,0
0:1:50.443,583.455,33.019,0,0.000885,0,0
0:1:50.936,586.623,33.1983,0,0.000885,0,0
0:1:51.441,588.851,33.3224,0,0.000885,0,0
0:1:51.956,591.08,33.4465,0,0.000885,0,0
0:1:52.461,593.077,33.5637,0,0.000885,0,0
0:1:52.966,594.661,33.6533,0,0.000885,0,0
0:1:53.469,595.95,33.7223,0,0.000885,0,0
0:1:53.966,596.658,33.7636,0,0.000885,0,0
0:1:54.460,595.132,33.6809,0,0.000885,0,0
0:1:54.956,593.602,33.5913,0,0.000885,0,0
0:1:55.452,591.783,33.4878,0,0.000885,0,0
0:1:55.943,590.141,33.3982,0,0.000885,0,0
0:1:56.444,589.145,33.3362,0,0.000885,0,0
0:1:56.946,586.445,33.1845,0,0.000885,0,0
0:1:57.445,581.694,32.9156,0,0.000885,0,0
0:1:57.945,573.367,32.4467,0,0.000885,0,0
0:1:58.436,541.931,30.6679,0,0.000885,0,0
0:1:58.932,487.619,27.5928,0,0.000885,0,0
0:1:59.442,456.183,25.814,0,0.000885,0,0
0:1:59.846,427.212,24.173,0,0.000885,0,0

File: DataFile2021-07-25_064639.csv
Test ID:,Date Tested:,Time:,Test Type:,Diameter Avg. (mm):,Cyl. Corr. Factor:,Height (mm):,Age (days):,Weight (kN):,Break Type:,Ramp Rate (MPa/s):,Load at Break (kN):,Stress at Break (MPa):
12,7/25/2021,06:46,Cylinder,100,1,200,0,3.5,2,0.33,263.63,33.56
Sample Time,Load (kN),Stress (MPa),Long. Strain,Trans. Strain,Chan1 Deflection (mm),Chan2 Deflection (mm)
0:0:12.152,5.28004,0.668791,0,0.000885,0,0
0:0:12.648,11.7878,1.50306,0,0.000885,0,0
0:0:13.146,11.6721,1.48927,0,0.000885,0,0
0:0:13.640,11.3786,1.4479,0,0.000885,0,0
0:0:14.137,11.7878,1.50306,0,0.000885,0,0
0:0:14.633,10.907,1.38585,0,0.000885,0,0
0:0:15.130,11.6721,1.48927,0,0.000885,0,0
0:0:15.628,12.9043,1.64095,0,0.000885,0,0
0:0:16.125,15.3686,1.95811,0,0.000885,0,0
0:0:16.622,16.9522,2.15806,0,0.000885,0,0
0:0:17.120,18.7092,2.38559,0,0.000885,0,0
0:0:17.620,19.7056,2.50969,0,0.000885,0,0
0:0:18.128,21.347,2.71653,0,0.000885,0,0
0:0:18.632,22.4635,2.86132,0,0.000885,0,0
0:0:19.137,24.3407,3.09575,0,0.000885,0,0
0:0:19.634,25.8664,3.29569,0,0.000885,0,0
0:0:20.133,27.45,3.49564,0,0.000885,0,0
0:0:20.630,29.1492,3.70938,0,0.000885,0,0
0:0:21.129,30.6749,3.90243,0,0.000885,0,0
0:0:21.628,32.3742,4.12306,0,0.000885,0,0
0:0:22.124,33.6641,4.28854,0,0.000885,0,0
0:0:22.623,34.2513,4.36438,0,0.000885,0,0
0:0:23.131,36.0128,4.58501,0,0.000885,0,0
0:0:23.636,37.5341,4.77807,0,0.000885,0,0
0:0:24.140,38.357,4.88149,0,0.000885,0,0
0:0:24.639,39.0598,4.97112,0,0.000885,0,0
0:0:25.137,40.4121,5.14349,0,0.000885,0,0
0:0:25.635,42.1691,5.37102,0,0.000885,0,0
0:0:26.132,43.7527,5.57096,0,0.000885,0,0
0:0:26.629,45.2206,5.75712,0,0.000885,0,0
0:0:27.128,46.6841,5.94328,0,0.000885,0,0
0:0:27.623,47.507,6.0467,0,0.000885,0,0
0:0:28.130,49.0327,6.23976,0,0.000885,0,0
0:0:28.635,50.7898,6.46728,0,0.000885,0,0
0:0:29.140,52.6669,6.7086,0,0.000885,0,0
0:0:29.638,53.6055,6.82581,0,0.000885,0,0
0:0:30.137,55.0156,7.00507,0,0.000885,0,0
0:0:30.634,56.5992,7.20502,0,0.000885,0,0
0:0:31.133,57.7112,7.34981,0,0.000885,0,0
0:0:31.630,59.1213,7.52907,0,0.000885,0,0
0:0:32.129,60.4691,7.70144,0,0.000885,0,0
0:0:32.624,61.1719,7.79108,0,0.000885,0,0
0:0:33.130,62.8712,8.00481,0,0.000885,0,0
0:0:33.637,64.4547,8.20476,0,0.000885,0,0
0:0:34.140,66.0383,8.4116,0,0.000885,0,0
0:0:34.638,67.5062,8.59776,0,0.000885,0,0
0:0:35.135,68.854,8.77013,0,0.000885,0,0
0:0:35.633,70.144,8.92871,0,0.000885,0,0
0:0:36.129,71.3762,9.08729,0,0.000885,0,0
0:0:36.628,72.6661,9.25276,0,0.000885,0,0
0:0:37.125,73.8405,9.40445,0,0.000885,0,0
0:0:37.631,75.1305,9.56303,0,0.000885,0,0
0:0:38.136,76.5405,9.74229,0,0.000885,0,0
0:0:38.639,78.1819,9.95603,0,0.000885,0,0
0:0:39.137,79.4719,10.1215,0,0.000885,0,0
0:0:39.635,80.4105,10.2387,0,0.000885,0,0
0:0:40.132,82.4611,10.5007,0,0.000885,0,0
0:0:40.631,83.9869,10.6938,0,0.000885,0,0
0:0:41.127,84.6897,10.7834,0,0.000885,0,0
0:0:41.626,86.509,11.0178,0,0.000885,0,0
0:0:42.124,87.9769,11.204,0,0.000885,0,0
0:0:42.625,88.9155,11.3212,0,0.000885,0,0
0:0:43.133,90.3211,11.5005,0,0.000885,0,0
0:0:43.637,92.5497,11.7831,0,0.000885,0,0
0:0:44.140,93.8975,11.9555,0,0.000885,0,0
0:0:44.636,94.9562,12.0934,0,0.000885,0,0
0:0:45.134,96.0682,12.2313,0,0.000885,0,0
0:0:45.632,97.2426,12.383,0,0.000885,0,0
0:0:46.130,98.1811,12.5002,0,0.000885,0,0
0:0:46.628,100.232,12.7622,0,0.000885,0,0
0:0:47.128,101.584,12.9346,0,0.000885,0,0
0:0:47.625,102.46,13.0449,0,0.000885,0,0
0:0:48.133,104.164,13.2655,0,0.000885,0,0
0:0:48.637,105.748,13.4655,0,0.000885,0,0
0:0:49.143,107.798,13.7275,0,0.000885,0,0
0:0:49.640,108.443,13.8102,0,0.000885,0,0
0:0:50.137,109.853,13.9895,0,0.000885,0,0
0:0:50.636,110.792,14.1067,0,0.000885,0,0
0:0:51.132,112.607,14.3411,0,0.000885,0,0
0:0:51.629,113.314,14.4307,0,0.000885,0,0
0:0:52.125,115.191,14.6651,0,0.000885,0,0
0:0:52.622,116.539,14.8375,0,0.000885,0,0
0:0:53.129,117.829,15.003,0,0.000885,0,0
0:0:53.634,119.942,15.2719,0,0.000885,0,0
0:0:54.137,120.76,15.3753,0,0.000885,0,0
0:0:54.636,121.992,15.5339,0,0.000885,0,0
0:0:55.133,123.518,15.7269,0,0.000885,0,0
0:0:55.630,124.75,15.8855,0,0.000885,0,0
0:0:56.127,125.925,16.0303,0,0.000885,0,0
0:0:56.625,128.091,16.3061,0,0.000885,0,0
0:0:57.121,128.798,16.3957,0,0.000885,0,0
0:0:57.627,129.852,16.5336,0,0.000885,0,0
0:0:58.133,131.73,16.7749,0,0.000885,0,0
0:0:58.638,133.429,16.9887,0,0.000885,0,0
0:0:59.137,134.31,17.099,0,0.000885,0,0
0:0:59.636,135.951,17.3127,0,0.000885,0,0
0:1:0.133,137.068,17.4506,0,0.000885,0,0
0:1:0.631,138.357,17.6161,0,0.000885,0,0
0:1:1.130,140.292,17.8643,0,0.000885,0,0
0:1:1.627,141.231,17.9815,0,0.000885,0,0
0:1:2.125,142.637,18.1608,0,0.000885,0,0
0:1:2.624,144.22,18.3607,0,0.000885,0,0
0:1:3.132,145.924,18.5814,0,0.000885,0,0
0:1:3.636,146.978,18.7124,0,0.000885,0,0
0:1:4.141,148.152,18.8641,0,0.000885,0,0
0:1:4.639,149.442,19.0295,0,0.000885,0,0
0:1:5.138,151.026,19.2295,0,0.000885,0,0
0:1:5.633,151.787,19.326,0,0.000885,0,0
0:1:6.131,153.957,19.6018,0,0.000885,0,0
0:1:6.627,155.074,19.7466,0,0.000885,0,0
0:1:7.126,156.302,19.8983,0,0.000885,0,0
0:1:7.623,157.712,20.0775,0,0.000885,0,0
0:1:8.128,159.002,20.243,0,0.000885,0,0
0:1:8.634,160.701,20.4636,0,0.000885,0,0
0:1:9.138,161.933,20.6153,0,0.000885,0,0
0:1:9.636,163.05,20.7601,0,0.000885,0,0
0:1:10.133,164.691,20.967,0,0.000885,0,0
0:1:10.631,165.923,21.1255,0,0.000885,0,0
0:1:11.126,167.858,21.3737,0,0.000885,0,0
0:1:11.625,169.09,21.5323,0,0.000885,0,0
0:1:12.121,170.265,21.6771,0,0.000885,0,0
0:1:12.627,171.377,21.8219,0,0.000885,0,0
0:1:13.131,172.782,22.0012,0,0.000885,0,0
0:1:13.635,174.486,22.2149,0,0.000885,0,0
0:1:14.134,175.776,22.3804,0,0.000885,0,0
0:1:14.630,176.888,22.5252,0,0.000885,0,0
0:1:15.128,178.12,22.6769,0,0.000885,0,0
0:1:15.626,179.294,22.8285,0,0.000885,0,0
0:1:16.124,180.642,23.0009,0,0.000885,0,0
0:1:16.622,182.697,23.2629,0,0.000885,0,0
0:1:17.120,183.342,23.3456,0,0.000885,0,0
0:1:17.622,185.277,23.587,0,0.000885,0,0
0:1:18.130,186.861,23.7938,0,0.000885,0,0
0:1:18.632,188.267,23.9731,0,0.000885,0,0
0:1:19.134,189.619,24.1454,0,0.000885,0,0
0:1:19.632,191.318,24.3592,0,0.000885,0,0
0:1:20.130,192.257,24.4764,0,0.000885,0,0
0:1:20.626,193.137,24.5936,0,0.000885,0,0
0:1:21.121,194.721,24.7935,0,0.000885,0,0
0:1:21.615,196.536,25.0211,0,0.000885,0,0
0:1:22.109,197.652,25.1659,0,0.000885,0,0
0:1:22.612,199,25.3382,0,0.000885,0,0
0:1:23.115,200.232,25.4968,0,0.000885,0,0
0:1:23.617,201.407,25.6416,0,0.000885,0,0
0:1:24.117,203.164,25.8691,0,0.000885,0,0
0:1:24.610,204.689,26.0622,0,0.000885,0,0
0:1:25.114,205.806,26.207,0,0.000885,0,0
0:1:25.608,207.447,26.4138,0,0.000885,0,0
0:1:26.110,208.737,26.5793,0,0.000885,0,0
0:1:26.614,210.085,26.7517,0,0.000885,0,0
0:1:27.107,210.908,26.8551,0,0.000885,0,0
0:1:27.611,212.256,27.0274,0,0.000885,0,0
0:1:28.114,213.782,27.2205,0,0.000885,0,0
0:1:28.613,214.956,27.3722,0,0.000885,0,0
0:1:29.108,216.361,27.5515,0,0.000885,0,0
0:1:29.612,217.945,27.7514,0,0.000885,0,0
0:1:30.105,218.999,27.8824,0,0.000885,0,0
0:1:30.609,220.819,28.1168,0,0.000885,0,0
0:1:31.113,222.402,28.3168,0,0.000885,0,0
0:1:31.606,223.519,28.4616,0,0.000885,0,0
0:1:32.109,225.16,28.6684,0,0.000885,0,0
0:1:32.611,226.214,28.7994,0,0.000885,0,0
0:1:33.114,227.918,29.02,0,0.000885,0,0
0:1:33.614,229.266,29.1924,0,0.000885,0,0
0:1:34.110,230.965,29.4061,0,0.000885,0,0
0:1:34.615,232.082,29.5509,0,0.000885,0,0
0:1:35.108,233.02,29.6681,0,0.000885,0,0
0:1:35.613,234.484,29.8543,0,0.000885,0,0
0:1:36.108,236.125,30.068,0,0.000885,0,0
0:1:36.610,237.241,30.2059,0,0.000885,0,0
0:1:37.103,238.767,30.399,0,0.000885,0,0
0:1:37.610,240.173,30.5782,0,0.000885,0,0
0:1:38.114,241.232,30.7161,0,0.000885,0,0
0:1:38.615,242.579,30.8885,0,0.000885,0,0
0:1:39.116,244.043,31.0747,0,0.000885,0,0
0:1:39.609,245.395,31.247,0,0.000885,0,0
0:1:40.101,246.507,31.3849,0,0.000885,0,0
0:1:40.606,248.033,31.578,0,0.000885,0,0
0:1:41.112,249.732,31.7986,0,0.000885,0,0
0:1:41.615,250.964,31.9572,0,0.000885,0,0
0:1:42.109,252.432,32.1434,0,0.000885,0,0
0:1:42.611,253.371,32.2606,0,0.000885,0,0
0:1:43.115,254.719,32.4329,0,0.000885,0,0
0:1:43.616,256.48,32.6536,0,0.000885,0,0
0:1:44.116,257.476,32.7846,0,0.000885,0,0
0:1:44.611,258.766,32.95,0,0.000885,0,0
0:1:45.101,260.114,33.1155,0,0.000885,0,0
0:1:45.608,261.111,33.2465,0,0.000885,0,0
0:1:46.111,262.285,33.3982,0,0.000885,0,0
0:1:46.614,263.575,33.5568,0,0.000885,0,0
0:1:47.104,264.104,33.6257,0,0.000885,0,0
0:1:47.607,264.104,33.6257,0,0.000885,0,0
0:1:48.109,263.459,33.543,0,0.000885,0,0
0:1:48.607,259.941,33.0948,0,0.000885,0,0
0:1:49.110,253.077,32.2261,0,0.000885,0,0
0:1:49.613,249.852,31.8124,0,0.000885,0,0
0:1:50.104,247.975,31.5711,0,0.000885,0,0
0:1:50.608,246.979,31.447,0,0.000885,0,0
0:1:51.110,246.334,31.3643,0,0.000885,0,0
0:1:51.614,245.569,31.2677,0,0.000885,0,0
0:1:52.105,243.282,30.9781,0,0.000885,0,0
0:1:52.614,236.77,30.1439,0,0.000885,0,0
0:1:53.116,222.287,28.303,0,0.000885,0,0
0:1:53.616,198.182,25.2348,0,0.000885,0,0
0:1:53.937,188.502,24.0007,0,0.000885,0,0