Folder: Experiment-Files (part 23)

File: DataFile2021-06-08_044524.csv
Test ID:,Date Tested:,Time:,Test Type:,Diameter Avg. (mm):,Cyl. Corr. Factor:,Height (mm):,Age (days):,Weight (kN):,Break Type:,Ramp Rate (MPa/s):,Load at Break (kN):,Stress at Break (MPa):
12,6/8/2021,04:45,Cylinder,100,1,200,0,3.6,3,0.24,349.27,44.47
Sample Time,Load (kN),Stress (MPa),Long. Strain,Trans. Strain,Chan1 Deflection (mm),Chan2 Deflection (mm)
0:0:15.384,5.10211,0.648107,0,0.000885,0,0
0:0:16.182,15.1907,1.93743,0,0.000885,0,0
0:0:16.973,13.9585,1.77885,0,0.000885,0,0
0:0:17.768,13.6649,1.73748,0,0.000885,0,0
0:0:18.563,13.8429,1.76506,0,0.000885,0,0
0:0:19.353,12.9621,1.64785,0,0.000885,0,0
0:0:20.157,14.1364,1.79953,0,0.000885,0,0
0:0:20.958,15.0127,1.90985,0,0.000885,0,0
0:0:21.764,16.7742,2.13737,0,0.000885,0,0
0:0:22.564,19.0606,2.42695,0,0.000885,0,0
0:0:23.359,21.1157,2.68896,0,0.000885,0,0
0:0:24.158,22.8728,2.90959,0,0.000885,0,0
0:0:24.952,23.6957,3.0199,0,0.000885,0,0
0:0:25.760,25.1591,3.20606,0,0.000885,0,0
0:0:26.570,26.9785,3.43359,0,0.000885,0,0
0:0:27.376,29.0914,3.70248,0,0.000885,0,0
0:0:28.173,30.2657,3.85417,0,0.000885,0,0
0:0:28.968,31.787,4.04722,0,0.000885,0,0
0:0:29.766,33.2549,4.23338,0,0.000885,0,0
0:0:30.561,34.8385,4.43333,0,0.000885,0,0
0:0:31.369,36.7156,4.67465,0,0.000885,0,0
0:0:32.174,37.8277,4.81944,0,0.000885,0,0
0:0:32.972,39.1799,4.9918,0,0.000885,0,0
0:0:33.767,41.4085,5.27449,0,0.000885,0,0
0:0:34.564,43.1077,5.48823,0,0.000885,0,0
0:0:35.359,44.0463,5.60544,0,0.000885,0,0
0:0:36.159,45.572,5.80539,0,0.000885,0,0
0:0:36.969,47.3914,6.03291,0,0.000885,0,0
0:0:37.769,49.6777,6.32249,0,0.000885,0,0
0:0:38.567,50.9677,6.48797,0,0.000885,0,0
0:0:39.361,51.9063,6.61207,0,0.000885,0,0
0:0:40.158,52.787,6.72239,0,0.000885,0,0
0:0:40.962,55.4827,7.06713,0,0.000885,0,0
0:0:41.770,56.8928,7.24639,0,0.000885,0,0
0:0:42.569,58.3562,7.43255,0,0.000885,0,0
0:0:43.362,60.1177,7.65318,0,0.000885,0,0
0:0:44.161,61.6435,7.84623,0,0.000885,0,0
0:0:44.953,63.1647,8.03929,0,0.000885,0,0
0:0:45.752,64.4547,8.20476,0,0.000885,0,0
0:0:46.560,66.6255,8.48055,0,0.000885,0,0
0:0:47.363,67.6841,8.61845,0,0.000885,0,0
0:0:48.159,69.1476,8.80461,0,0.000885,0,0
0:0:48.952,71.4384,9.09418,0,0.000885,0,0
0:0:49.761,72.8441,9.27345,0,0.000885,0,0
0:0:50.554,74.0762,9.43203,0,0.000885,0,0
0:0:51.363,76.069,9.68713,0,0.000885,0,0
0:0:52.169,77.5948,9.88019,0,0.000885,0,0
0:0:52.966,78.9426,10.0526,0,0.000885,0,0
0:0:53.760,80.3527,10.2318,0,0.000885,0,0
0:0:54.557,82.3455,10.4869,0,0.000885,0,0
0:0:55.360,83.6355,10.6455,0,0.000885,0,0
0:0:56.158,84.9254,10.811,0,0.000885,0,0
0:0:56.967,86.7448,11.0454,0,0.000885,0,0
0:0:57.767,88.2082,11.2316,0,0.000885,0,0
0:0:58.565,90.5569,11.528,0,0.000885,0,0
0:0:59.357,90.8505,11.5694,0,0.000885,0,0
0:1:0.158,93.1947,11.8659,0,0.000885,0,0
0:1:0.960,94.4268,12.0245,0,0.000885,0,0
0:1:1.768,96.5976,12.3002,0,0.000885,0,0
0:1:2.565,96.8912,12.3347,0,0.000885,0,0
0:1:3.360,99.7069,12.6932,0,0.000885,0,0
0:1:4.158,101.29,12.8932,0,0.000885,0,0
0:1:4.958,102.051,12.9966,0,0.000885,0,0
0:1:5.757,103.928,13.231,0,0.000885,0,0
0:1:6.567,105.512,13.431,0,0.000885,0,0
0:1:7.372,107.273,13.6585,0,0.000885,0,0
0:1:8.166,109.03,13.8791,0,0.000885,0,0
0:1:8.960,110.089,14.017,0,0.000885,0,0
0:1:9.757,111.259,14.1687,0,0.000885,0,0
0:1:10.562,113.372,14.4376,0,0.000885,0,0
0:1:11.368,115.013,14.6445,0,0.000885,0,0
0:1:12.173,116.245,14.803,0,0.000885,0,0
0:1:12.976,118.238,15.0581,0,0.000885,0,0
0:1:13.770,120.702,15.3684,0,0.000885,0,0
0:1:14.565,121.463,15.4649,0,0.000885,0,0
0:1:15.359,122.58,15.6097,0,0.000885,0,0
0:1:16.159,124.105,15.8028,0,0.000885,0,0
0:1:16.967,125.044,15.92,0,0.000885,0,0
0:1:17.769,127.797,16.2716,0,0.000885,0,0
0:1:18.567,129.443,16.4785,0,0.000885,0,0
0:1:19.361,131.2,16.706,0,0.000885,0,0
0:1:20.158,132.49,16.8715,0,0.000885,0,0
0:1:20.962,133.487,16.9956,0,0.000885,0,0
0:1:21.769,135.133,17.2024,0,0.000885,0,0
0:1:22.568,138.064,17.5816,0,0.000885,0,0
0:1:23.360,138.237,17.6023,0,0.000885,0,0
0:1:24.158,139.705,17.7885,0,0.000885,0,0
0:1:24.962,142.227,18.1056,0,0.000885,0,0
0:1:25.761,143.282,18.2435,0,0.000885,0,0
0:1:26.570,144.985,18.4573,0,0.000885,0,0
0:1:27.371,146.92,18.7055,0,0.000885,0,0
0:1:28.169,147.681,18.802,0,0.000885,0,0
0:1:28.961,149.091,18.9813,0,0.000885,0,0
0:1:29.760,150.612,19.1743,0,0.000885,0,0
0:1:30.564,152.61,19.4294,0,0.000885,0,0
0:1:31.374,154.78,19.7052,0,0.000885,0,0
0:1:32.180,157.24,20.0224,0,0.000885,0,0
0:1:32.971,157.596,20.0637,0,0.000885,0,0
0:1:33.771,158.886,20.2292,0,0.000885,0,0
0:1:34.563,160.056,20.3809,0,0.000885,0,0
0:1:35.361,162.169,20.6498,0,0.000885,0,0
0:1:36.165,163.695,20.8429,0,0.000885,0,0
0:1:36.972,165.63,21.0911,0,0.000885,0,0
0:1:37.773,166.39,21.1876,0,0.000885,0,0
0:1:38.566,168.032,21.3944,0,0.000885,0,0
0:1:39.365,169.793,21.622,0,0.000885,0,0
0:1:40.159,171.492,21.8357,0,0.000885,0,0
0:1:40.968,173.957,22.146,0,0.000885,0,0
0:1:41.777,174.192,22.1804,0,0.000885,0,0
0:1:42.577,176.127,22.4286,0,0.000885,0,0
0:1:43.374,177.711,22.6286,0,0.000885,0,0
0:1:44.167,179.41,22.8423,0,0.000885,0,0
0:1:44.967,180.936,23.0354,0,0.000885,0,0
0:1:45.759,182.519,23.2422,0,0.000885,0,0
0:1:46.569,183.636,23.3801,0,0.000885,0,0
0:1:47.375,185.571,23.6283,0,0.000885,0,0
0:1:48.171,187.679,23.8972,0,0.000885,0,0
0:1:48.967,188.68,24.0213,0,0.000885,0,0
0:1:49.761,190.322,24.2351,0,0.000885,0,0
0:1:50.559,191.847,24.4281,0,0.000885,0,0
0:1:51.366,193.369,24.6212,0,0.000885,0,0
0:1:52.165,195.424,24.8832,0,0.000885,0,0
0:1:52.963,196.127,24.9728,0,0.000885,0,0
0:1:53.764,198.764,25.3107,0,0.000885,0,0
0:1:54.550,200.059,25.4692,0,0.000885,0,0
0:1:55.351,200.704,25.552,0,0.000885,0,0
0:1:56.149,202.99,25.8484,0,0.000885,0,0
0:1:56.952,204.983,26.0967,0,0.000885,0,0
0:1:57.755,206.099,26.2414,0,0.000885,0,0
0:1:58.562,208.328,26.5241,0,0.000885,0,0
0:1:59.365,209.146,26.6276,0,0.000885,0,0
0:2:0.160,210.614,26.8137,0,0.000885,0,0
0:2:0.953,212.256,27.0274,0,0.000885,0,0
0:2:1.760,213.839,27.2274,0,0.000885,0,0
0:2:2.566,215.659,27.4618,0,0.000885,0,0
0:2:3.365,216.891,27.6135,0,0.000885,0,0
0:2:4.152,218.354,27.7997,0,0.000885,0,0
0:2:4.953,220.231,28.041,0,0.000885,0,0
0:2:5.759,221.815,28.2409,0,0.000885,0,0
0:2:6.564,223.577,28.4685,0,0.000885,0,0
0:2:7.367,225.04,28.6546,0,0.000885,0,0
0:2:8.159,226.859,28.8821,0,0.000885,0,0
0:2:8.945,228.679,29.1166,0,0.000885,0,0
0:2:9.766,229.439,29.2131,0,0.000885,0,0
0:2:10.565,230.907,29.3992,0,0.000885,0,0
0:2:11.370,232.491,29.5992,0,0.000885,0,0
0:2:12.172,234.132,29.8129,0,0.000885,0,0
0:2:12.960,235.658,30.006,0,0.000885,0,0
0:2:13.751,237.299,30.2128,0,0.000885,0,0
0:2:14.556,238.647,30.3852,0,0.000885,0,0
0:2:15.369,240.293,30.592,0,0.000885,0,0
0:2:16.167,241.814,30.792,0,0.000885,0,0
0:2:16.968,243.576,31.0126,0,0.000885,0,0
0:2:17.761,245.569,31.2677,0,0.000885,0,0
0:2:18.548,246.685,31.4056,0,0.000885,0,0
0:2:19.348,248.148,31.5987,0,0.000885,0,0
0:2:20.166,249.674,31.7917,0,0.000885,0,0
0:2:20.961,251.494,32.0193,0,0.000885,0,0
0:2:21.766,253.313,32.2537,0,0.000885,0,0
0:2:22.565,254.834,32.4467,0,0.000885,0,0
0:2:23.361,256.48,32.6536,0,0.000885,0,0
0:2:24.162,257.77,32.819,0,0.000885,0,0
0:2:24.950,259.06,32.9845,0,0.000885,0,0
0:2:25.754,261.289,33.2672,0,0.000885,0,0
0:2:26.558,262.463,33.4189,0,0.000885,0,0
0:2:27.362,264.398,33.6671,0,0.000885,0,0
0:2:28.166,265.63,33.8188,0,0.000885,0,0
0:2:28.962,266.8,33.9705,0,0.000885,0,0
0:2:29.764,269.38,34.3014,0,0.000885,0,0
0:2:30.559,270.261,34.4117,0,0.000885,0,0
0:2:31.366,271.608,34.5841,0,0.000885,0,0
0:2:32.166,273.312,34.7978,0,0.000885,0,0
0:2:32.955,275.305,35.0529,0,0.000885,0,0
0:2:33.755,276.831,35.246,0,0.000885,0,0
0:2:34.564,278.356,35.4391,0,0.000885,0,0
0:2:35.366,279.762,35.6183,0,0.000885,0,0
0:2:36.162,281.639,35.8596,0,0.000885,0,0
0:2:36.965,283.107,36.0458,0,0.000885,0,0
0:2:37.768,284.339,36.2044,0,0.000885,0,0
0:2:38.559,286.448,36.4733,0,0.000885,0,0
0:2:39.356,287.155,36.5629,0,0.000885,0,0
0:2:40.157,289.321,36.8387,0,0.000885,0,0
0:2:40.969,290.673,37.0111,0,0.000885,0,0
0:2:41.769,292.488,37.2386,0,0.000885,0,0
0:2:42.564,294.308,37.473,0,0.000885,0,0
0:2:43.369,295.131,37.5764,0,0.000885,0,0
0:2:44.164,297.475,37.8729,0,0.000885,0,0
0:2:44.960,299.116,38.0866,0,0.000885,0,0
0:2:45.765,300.7,38.2866,0,0.000885,0,0
0:2:46.569,301.287,38.3624,0,0.000885,0,0
0:2:47.364,303.342,38.6244,0,0.000885,0,0
0:2:48.164,304.805,38.8106,0,0.000885,0,0
0:2:48.959,306.803,39.0657,0,0.000885,0,0
0:2:49.764,308.386,39.2656,0,0.000885,0,0
0:2:50.549,309.556,39.4173,0,0.000885,0,0
0:2:51.355,310.846,39.5759,0,0.000885,0,0
0:2:52.157,312.781,39.8241,0,0.000885,0,0
0:2:52.967,314.307,40.0172,0,0.000885,0,0
0:2:53.759,316.184,40.2585,0,0.000885,0,0
0:2:54.566,317.301,40.3964,0,0.000885,0,0
0:2:55.370,319.76,40.7135,0,0.000885,0,0
0:2:56.168,320.583,40.817,0,0.000885,0,0
0:2:56.969,322.225,41.0238,0,0.000885,0,0
0:2:57.761,323.399,41.1755,0,0.000885,0,0
0:2:58.572,325.04,41.3823,0,0.000885,0,0
0:2:59.366,326.802,41.6099,0,0.000885,0,0
0:3:0.161,328.208,41.7891,0,0.000885,0,0
0:3:0.954,330.143,42.0373,0,0.000885,0,0
0:3:1.758,331.726,42.2373,0,0.000885,0,0
0:3:2.559,333.488,42.4579,0,0.000885,0,0
0:3:3.349,334.778,42.6234,0,0.000885,0,0
0:3:4.158,336.655,42.8647,0,0.000885,0,0
0:3:4.958,337.825,43.0164,0,0.000885,0,0
0:3:5.769,338.883,43.1474,0,0.000885,0,0
0:3:6.572,341.112,43.4301,0,0.000885,0,0
0:3:7.366,341.815,43.5197,0,0.000885,0,0
0:3:8.166,343.634,43.7541,0,0.000885,0,0
0:3:8.967,344.924,43.9196,0,0.000885,0,0
0:3:9.766,346.508,44.1196,0,0.000885,0,0
0:3:10.556,347.446,44.2368,0,0.000885,0,0
0:3:11.361,348.5,44.3747,0,0.000885,0,0
0:3:12.161,349.265,44.4712,0,0.000885,0,0
0:3:12.959,348.327,44.3471,0,0.000885,0,0
0:3:13.758,342.753,43.6438,0,0.000885,0,0
0:3:14.567,288.618,36.7491,0,0.000885,0,0
0:3:14.686,288.618,36.7491,0,0.000885,0,0

File: DataFile2021-06-08_050008.csv
Test ID:,Date Tested:,Time:,Test Type:,Diameter Avg. (mm):,Cyl. Corr. Factor:,Height (mm):,Age (days):,Weight (kN):,Break Type:,Ramp Rate (MPa/s):,Load at Break (kN):,Stress at Break (MPa):
12,6/8/2021,05:00,Cylinder,154,1,301,0,3.6,5,0.24,764.12,41.02
Sample Time,Load (kN),Stress (MPa),Long. Strain,Trans. Strain,Chan1 Deflection (mm),Chan2 Deflection (mm)
0:0:17.930,10.0307,0.537791,0,0.000885,0,0
0:0:18.626,20.4084,1.09627,0,0.000885,0,0
0:0:19.316,19.7056,1.0549,0,0.000885,0,0
0:0:20.012,19.2964,1.03421,0,0.000885,0,0
0:0:20.707,18.3578,0.98595,0,0.000885,0,0
0:0:21.398,20.8221,1.11695,0,0.000885,0,0
0:0:22.098,24.9278,1.33758,0,0.000885,0,0
0:0:22.794,28.3886,1.52374,0,0.000885,0,0
0:0:23.499,31.787,1.7099,0,0.000885,0,0
0:0:24.207,34.6605,1.86158,0,0.000885,0,0
0:0:24.910,38.5928,2.07532,0,0.000885,0,0
0:0:25.608,40.9948,2.19943,0,0.000885,0,0
0:0:26.307,45.1628,2.42695,0,0.000885,0,0
0:0:27.001,47.6849,2.55795,0,0.000885,0,0
0:0:27.698,50.8521,2.73032,0,0.000885,0,0
0:0:28.398,54.077,2.90269,0,0.000885,0,0
0:0:29.108,57.8892,3.10954,0,0.000885,0,0
0:0:29.814,60.9362,3.27501,0,0.000885,0,0
0:0:30.508,64.1656,3.44738,0,0.000885,0,0
0:0:31.204,67.2126,3.60596,0,0.000885,0,0
0:0:31.904,70.2063,3.77143,0,0.000885,0,0
0:0:32.599,73.9561,3.97138,0,0.000885,0,0
0:0:33.295,77.537,4.16443,0,0.000885,0,0
0:0:34.004,80.8197,4.3368,0,0.000885,0,0
0:0:34.710,83.929,4.50917,0,0.000885,0,0
0:0:35.411,86.9805,4.66775,0,0.000885,0,0
0:0:36.107,90.2633,4.84701,0,0.000885,0,0
0:0:36.803,93.1369,4.9987,0,0.000885,0,0
0:0:37.503,97.1847,5.21933,0,0.000885,0,0
0:0:38.202,99.9426,5.36412,0,0.000885,0,0
0:0:38.912,103.461,5.55717,0,0.000885,0,0
0:0:39.619,105.983,5.68817,0,0.000885,0,0
0:0:40.313,109.675,5.88812,0,0.000885,0,0
0:0:41.012,112.963,6.06739,0,0.000885,0,0
0:0:41.710,117.068,6.28802,0,0.000885,0,0
0:0:42.403,120.058,6.4466,0,0.000885,0,0
0:0:43.102,122.464,6.5776,0,0.000885,0,0
0:0:43.812,125.689,6.74997,0,0.000885,0,0
0:0:44.517,129.617,6.95681,0,0.000885,0,0
0:0:45.218,133.02,7.14297,0,0.000885,0,0
0:0:45.914,135.893,7.29465,0,0.000885,0,0
0:0:46.609,138.709,7.44634,0,0.000885,0,0
0:0:47.310,141.818,7.61181,0,0.000885,0,0
0:0:48.005,146.275,7.85313,0,0.000885,0,0
0:0:48.713,148.855,7.99102,0,0.000885,0,0
0:0:49.418,152.258,8.17718,0,0.000885,0,0
0:0:50.119,155.247,8.33576,0,0.000885,0,0
0:0:50.818,158.121,8.48745,0,0.000885,0,0
0:0:51.516,162.053,8.70118,0,0.000885,0,0
0:0:52.211,165.042,8.85976,0,0.000885,0,0
0:0:52.912,168.503,9.04592,0,0.000885,0,0
0:0:53.612,171.848,9.22519,0,0.000885,0,0
0:0:54.321,175.073,9.39755,0,0.000885,0,0
0:0:55.027,178.062,9.56303,0,0.000885,0,0
0:0:55.721,181.759,9.75608,0,0.000885,0,0
0:0:56.419,185.335,9.94913,0,0.000885,0,0
0:0:57.117,188.267,10.1077,0,0.000885,0,0
0:0:57.812,190.846,10.2456,0,0.000885,0,0
0:0:58.519,194.134,10.4249,0,0.000885,0,0
0:0:59.220,197.417,10.5972,0,0.000885,0,0
0:0:59.918,201.407,10.811,0,0.000885,0,0
0:1:0.611,204.689,10.9902,0,0.000885,0,0
0:1:1.300,207.683,11.1488,0,0.000885,0,0
0:1:1.995,211.375,11.3488,0,0.000885,0,0
0:1:2.685,213.955,11.4867,0,0.000885,0,0
0:1:3.384,216.597,11.6315,0,0.000885,0,0
0:1:4.088,219.707,11.7969,0,0.000885,0,0
0:1:4.784,223.986,12.0245,0,0.000885,0,0
0:1:5.487,227.504,12.2175,0,0.000885,0,0
0:1:6.181,230.792,12.3899,0,0.000885,0,0
0:1:6.878,233.194,12.5209,0,0.000885,0,0
0:1:7.581,236.596,12.7001,0,0.000885,0,0
0:1:8.284,239.764,12.8725,0,0.000885,0,0
0:1:8.989,243.34,13.0656,0,0.000885,0,0
0:1:9.691,246.565,13.2379,0,0.000885,0,0
0:1:10.383,249.794,13.4103,0,0.000885,0,0
0:1:11.081,253.193,13.5965,0,0.000885,0,0
0:1:11.787,256.129,13.7481,0,0.000885,0,0
0:1:12.478,259.411,13.9274,0,0.000885,0,0
0:1:13.188,262.752,14.1067,0,0.000885,0,0
0:1:13.893,265.63,14.2584,0,0.000885,0,0
0:1:14.594,269.38,14.4652,0,0.000885,0,0
0:1:15.289,272.316,14.6169,0,0.000885,0,0
0:1:15.983,275.541,14.7961,0,0.000885,0,0
0:1:16.680,279.589,15.0099,0,0.000885,0,0
0:1:17.384,282.636,15.1754,0,0.000885,0,0
0:1:18.086,285.509,15.327,0,0.000885,0,0
0:1:18.782,288.618,15.4925,0,0.000885,0,0
0:1:19.485,292.488,15.7063,0,0.000885,0,0
0:1:20.183,295.188,15.851,0,0.000885,0,0
0:1:20.884,298.471,16.0234,0,0.000885,0,0
0:1:21.589,301.758,16.2027,0,0.000885,0,0
0:1:22.288,305.277,16.3888,0,0.000885,0,0
0:1:22.976,308.969,16.5888,0,0.000885,0,0
0:1:23.684,311.024,16.6991,0,0.000885,0,0
0:1:24.385,314.721,16.8991,0,0.000885,0,0
0:1:25.080,318.648,17.1059,0,0.000885,0,0
0:1:25.783,321.815,17.2783,0,0.000885,0,0
0:1:26.481,325.161,17.4575,0,0.000885,0,0
0:1:27.185,327.741,17.5954,0,0.000885,0,0
0:1:27.886,330.788,17.7609,0,0.000885,0,0
0:1:28.583,334.368,17.9539,0,0.000885,0,0
0:1:29.287,338.474,18.1746,0,0.000885,0,0
0:1:29.984,340.934,18.3056,0,0.000885,0,0
0:1:30.672,344.279,18.4848,0,0.000885,0,0
0:1:31.387,347.326,18.6503,0,0.000885,0,0
0:1:32.087,350.32,18.8089,0,0.000885,0,0
0:1:32.791,354.31,19.0226,0,0.000885,0,0
0:1:33.483,357.241,19.1812,0,0.000885,0,0
0:1:34.190,360.817,19.3743,0,0.000885,0,0
0:1:34.890,363.34,19.5053,0,0.000885,0,0
0:1:35.581,367.094,19.7052,0,0.000885,0,0
0:1:36.281,370.261,19.8776,0,0.000885,0,0
0:1:36.988,373.837,20.0706,0,0.000885,0,0
0:1:37.687,377.24,20.2499,0,0.000885,0,0
0:1:38.389,379.647,20.3809,0,0.000885,0,0
0:1:39.090,382.987,20.5602,0,0.000885,0,0
0:1:39.786,386.39,20.7463,0,0.000885,0,0
0:1:40.475,389.967,20.9394,0,0.000885,0,0
0:1:41.171,393.543,21.1255,0,0.000885,0,0
0:1:41.878,396.772,21.3048,0,0.000885,0,0
0:1:42.584,399.526,21.4496,0,0.000885,0,0
0:1:43.287,403.165,21.6426,0,0.000885,0,0
0:1:43.993,406.096,21.8012,0,0.000885,0,0
0:1:44.696,409.966,22.0081,0,0.000885,0,0
0:1:45.383,412.724,22.1597,0,0.000885,0,0
0:1:46.087,415.891,22.3252,0,0.000885,0,0
0:1:46.777,419.352,22.5114,0,0.000885,0,0
0:1:47.476,422.399,22.6769,0,0.000885,0,0
0:1:48.180,425.277,22.8285,0,0.000885,0,0
0:1:48.887,429.498,23.0561,0,0.000885,0,0
0:1:49.588,433.074,23.2491,0,0.000885,0,0
0:1:50.283,435.832,23.4008,0,0.000885,0,0
0:1:50.991,438.706,23.5525,0,0.000885,0,0
0:1:51.684,442.167,23.7386,0,0.000885,0,0
0:1:52.385,445.04,23.8903,0,0.000885,0,0
0:1:53.074,448.794,24.0972,0,0.000885,0,0
0:1:53.779,452.077,24.2695,0,0.000885,0,0
0:1:54.482,455.538,24.4557,0,0.000885,0,0
0:1:55.175,458.532,24.6143,0,0.000885,0,0
0:1:55.890,461.463,24.7729,0,0.000885,0,0
0:1:56.589,464.982,24.9659,0,0.000885,0,0
0:1:57.294,467.855,25.1176,0,0.000885,0,0
0:1:57.984,471.725,25.3244,0,0.000885,0,0
0:1:58.687,474.95,25.4968,0,0.000885,0,0
0:1:59.386,477.944,25.6623,0,0.000885,0,0
0:2:0.091,480.581,25.8002,0,0.000885,0,0
0:2:0.785,485.159,26.0484,0,0.000885,0,0
0:2:1.489,487.619,26.1794,0,0.000885,0,0
0:2:2.187,490.906,26.3518,0,0.000885,0,0
0:2:2.892,494.189,26.531,0,0.000885,0,0
0:2:3.587,497.471,26.7103,0,0.000885,0,0
0:2:4.290,500.581,26.8758,0,0.000885,0,0
0:2:4.993,504.864,27.1033,0,0.000885,0,0
0:2:5.691,507.093,27.2274,0,0.000885,0,0
0:2:6.384,510.554,27.4067,0,0.000885,0,0
0:2:7.085,513.956,27.5928,0,0.000885,0,0
0:2:7.787,516.888,27.7514,0,0.000885,0,0
0:2:8.491,519.29,27.8824,0,0.000885,0,0
0:2:9.196,523.925,28.1306,0,0.000885,0,0
0:2:9.898,527.092,28.2961,0,0.000885,0,0
0:2:10.592,530.375,28.4753,0,0.000885,0,0
0:2:11.289,533.604,28.6477,0,0.000885,0,0
0:2:11.992,535.948,28.7718,0,0.000885,0,0
0:2:12.685,539.351,28.958,0,0.000885,0,0
0:2:13.392,542.928,29.151,0,0.000885,0,0
0:2:14.095,546.918,29.3648,0,0.000885,0,0
0:2:14.794,550.436,29.5509,0,0.000885,0,0
0:2:15.493,553.19,29.6957,0,0.000885,0,0
0:2:16.185,555.712,29.8336,0,0.000885,0,0
0:2:16.885,559.351,30.0267,0,0.000885,0,0
0:2:17.588,562.927,30.2197,0,0.000885,0,0
0:2:18.292,566.036,30.3921,0,0.000885,0,0
0:2:18.995,569.261,30.5645,0,0.000885,0,0
0:2:19.697,572.428,30.7299,0,0.000885,0,0
0:2:20.389,575.538,30.8954,0,0.000885,0,0
0:2:21.085,579.585,31.116,0,0.000885,0,0
0:2:21.791,582.575,31.2746,0,0.000885,0,0
0:2:22.493,585.568,31.4401,0,0.000885,0,0
0:2:23.191,588.909,31.6194,0,0.000885,0,0
0:2:23.897,592.076,31.7848,0,0.000885,0,0
0:2:24.603,595.483,31.971,0,0.000885,0,0
0:2:25.301,598.299,32.1227,0,0.000885,0,0
0:2:26.000,602.231,32.3295,0,0.000885,0,0
0:2:26.690,605.345,32.5019,0,0.000885,0,0
0:2:27.395,608.277,32.6536,0,0.000885,0,0
0:2:28.094,611.39,32.8259,0,0.000885,0,0
0:2:28.803,615.438,33.0397,0,0.000885,0,0
0:2:29.507,618.374,33.1983,0,0.000885,0,0
0:2:30.202,621.31,33.3568,0,0.000885,0,0
0:2:30.893,624.477,33.5292,0,0.000885,0,0
0:2:31.591,627.649,33.6947,0,0.000885,0,0
0:2:32.295,630.82,33.867,0,0.000885,0,0
0:2:32.989,634.81,34.0808,0,0.000885,0,0
0:2:33.695,638.155,34.26,0,0.000885,0,0
0:2:34.401,640.797,34.4048,0,0.000885,0,0
0:2:35.099,644.085,34.5772,0,0.000885,0,0
0:2:35.798,646.9,34.7289,0,0.000885,0,0
0:2:36.489,650.423,34.9219,0,0.000885,0,0
0:2:37.195,653.946,35.1081,0,0.000885,0,0
0:2:37.893,657.407,35.2943,0,0.000885,0,0
0:2:38.601,660.227,35.4459,0,0.000885,0,0
0:2:39.307,663.924,35.6459,0,0.000885,0,0
0:2:40.010,667.331,35.8252,0,0.000885,0,0
0:2:40.704,670.734,36.0113,0,0.000885,0,0
0:2:41.401,673.14,36.1354,0,0.000885,0,0
0:2:42.095,677.193,36.3561,0,0.000885,0,0
0:2:42.799,679.773,36.494,0,0.000885,0,0
0:2:43.498,683.411,36.687,0,0.000885,0,0
0:2:44.205,686.699,36.8663,0,0.000885,0,0
0:2:44.909,690.164,37.0524,0,0.000885,0,0
0:2:45.606,693.157,37.211,0,0.000885,0,0
0:2:46.298,696.267,37.3834,0,0.000885,0,0
0:2:46.993,699.318,37.542,0,0.000885,0,0
0:2:47.691,702.783,37.7281,0,0.000885,0,0
0:2:48.400,706.422,37.9281,0,0.000885,0,0
0:2:49.107,709.416,38.0866,0,0.000885,0,0
0:2:49.807,712.116,38.2314,0,0.000885,0,0
0:2:50.501,715.817,38.4314,0,0.000885,0,0
0:2:51.198,718.748,38.59,0,0.000885,0,0
0:2:51.891,722.098,38.7692,0,0.000885,0,0
0:2:52.596,725.443,38.9485,0,0.000885,0,0
0:2:53.293,728.903,39.1346,0,0.000885,0,0
0:2:54.000,732.075,39.3001,0,0.000885,0,0
0:2:54.705,734.891,39.4518,0,0.000885,0,0
0:2:55.403,737.827,39.6104,0,0.000885,0,0
0:2:56.095,741.407,39.8034,0,0.000885,0,0
0:2:56.794,745.224,40.0103,0,0.000885,0,0
0:2:57.498,747.688,40.1413,0,0.000885,0,0
0:2:58.190,750.566,40.293,0,0.000885,0,0
0:2:58.899,753.56,40.4584,0,0.000885,0,0
0:2:59.602,757.141,40.6515,0,0.000885,0,0
0:3:0.302,760.428,40.8239,0,0.000885,0,0
0:3:1.000,762.599,40.9411,0,0.000885,0,0
0:3:1.690,764.476,41.0445,0,0.000885,0,0
0:3:2.393,762.95,40.9618,0,0.000885,0,0
0:3:3.098,752.443,40.3964,0,0.000885,0,0
0:3:3.804,543.751,29.1924,0,0.000885,0,0