Folder: Experiment-Files (part 67)

File: DataFile2021-07-03_074140.csv
Test ID:,Date Tested:,Time:,Test Type:,Diameter Avg. (mm):,Cyl. Corr. Factor:,Height (mm):,Age (days):,Weight (kN):,Break Type:,Ramp Rate (MPa/s):,Load at Break (kN):,Stress at Break (MPa):
12,7/3/2021,07:41,Cylinder,100,1,200,0,3.6,3,0.24,602.53,76.72
Sample Time,Load (kN),Stress (MPa),Long. Strain,Trans. Strain,Chan1 Deflection (mm),Chan2 Deflection (mm)
0:0:5.123,5.21776,0.661897,0,0.000885,0,0
0:0:6.421,7.27284,0.923897,0,0.000885,0,0
0:0:7.727,10.0307,1.27553,0,0.000885,0,0
0:0:9.038,12.0814,1.53753,0,0.000885,0,0
0:0:10.341,15.0127,1.90985,0,0.000885,0,0
0:0:11.649,17.2413,2.19253,0,0.000885,0,0
0:0:12.949,20.1771,2.57174,0,0.000885,0,0
0:0:14.247,22.7571,2.8958,0,0.000885,0,0
0:0:15.547,25.9821,3.30948,0,0.000885,0,0
0:0:16.862,29.2648,3.72317,0,0.000885,0,0
0:0:18.153,31.3199,3.98517,0,0.000885,0,0
0:0:19.448,33.4907,4.26096,0,0.000885,0,0
0:0:20.750,35.8927,4.57122,0,0.000885,0,0
0:0:22.059,37.8277,4.81944,0,0.000885,0,0
0:0:23.356,40.3498,5.13659,0,0.000885,0,0
0:0:24.647,43.3435,5.51581,0,0.000885,0,0
0:0:25.953,46.4528,5.9157,0,0.000885,0,0
0:0:27.259,48.8548,6.21907,0,0.000885,0,0
0:0:28.556,51.1412,6.50865,0,0.000885,0,0
0:0:29.845,53.432,6.80513,0,0.000885,0,0
0:0:31.153,55.8341,7.10849,0,0.000885,0,0
0:0:32.457,59.4149,7.56355,0,0.000885,0,0
0:0:33.752,61.5234,7.83244,0,0.000885,0,0
0:0:35.043,63.6363,8.10134,0,0.000885,0,0
0:0:36.350,66.5098,8.46676,0,0.000885,0,0
0:0:37.653,69.6191,8.86666,0,0.000885,0,0
0:0:38.946,71.9633,9.16313,0,0.000885,0,0
0:0:40.238,74.1341,9.43892,0,0.000885,0,0
0:0:41.553,76.892,9.79056,0,0.000885,0,0
0:0:42.850,79.2362,10.087,0,0.000885,0,0
0:0:44.143,81.8161,10.418,0,0.000885,0,0
0:0:45.437,84.574,10.7696,0,0.000885,0,0
0:0:46.751,87.2118,11.1075,0,0.000885,0,0
0:0:48.047,89.3247,11.3763,0,0.000885,0,0
0:0:49.338,92.1983,11.7418,0,0.000885,0,0
0:0:50.643,94.8361,12.0727,0,0.000885,0,0
0:0:51.958,96.4819,12.2865,0,0.000885,0,0
0:0:53.256,99.2932,12.645,0,0.000885,0,0
0:0:54.545,101.993,12.9828,0,0.000885,0,0
0:0:55.853,105.276,13.4034,0,0.000885,0,0
0:0:57.156,107.447,13.6792,0,0.000885,0,0
0:0:58.450,109.444,13.9343,0,0.000885,0,0
0:0:59.742,112.14,14.279,0,0.000885,0,0
0:1:1.050,115.249,14.672,0,0.000885,0,0
0:1:2.355,117.42,14.9478,0,0.000885,0,0
0:1:3.649,120.293,15.3133,0,0.000885,0,0
0:1:4.940,122.286,15.5684,0,0.000885,0,0
0:1:6.250,125.217,15.9407,0,0.000885,0,0
0:1:7.552,127.86,16.2785,0,0.000885,0,0
0:1:8.842,129.91,16.5405,0,0.000885,0,0
0:1:10.136,132.668,16.8922,0,0.000885,0,0
0:1:11.456,135.133,17.2024,0,0.000885,0,0
0:1:12.760,138.531,17.6368,0,0.000885,0,0
0:1:14.051,141.173,17.9746,0,0.000885,0,0
0:1:15.349,142.872,18.1884,0,0.000885,0,0
0:1:16.665,145.804,18.5676,0,0.000885,0,0
0:1:17.959,147.975,18.8434,0,0.000885,0,0
0:1:19.252,150.732,19.195,0,0.000885,0,0
0:1:20.551,152.903,19.4708,0,0.000885,0,0
0:1:21.865,155.777,19.8362,0,0.000885,0,0
0:1:23.157,158.824,20.2223,0,0.000885,0,0
0:1:24.455,160.879,20.4843,0,0.000885,0,0
0:1:25.755,163.695,20.8429,0,0.000885,0,0
0:1:27.068,166.332,21.1807,0,0.000885,0,0
0:1:28.360,168.681,21.4772,0,0.000885,0,0
0:1:29.656,171.319,21.815,0,0.000885,0,0
0:1:30.958,174.135,22.1735,0,0.000885,0,0
0:1:32.267,176.127,22.4286,0,0.000885,0,0
0:1:33.562,178.827,22.7665,0,0.000885,0,0
0:1:34.853,181.701,23.1319,0,0.000885,0,0
0:1:36.157,183.578,23.3732,0,0.000885,0,0
0:1:37.463,186.745,23.78,0,0.000885,0,0
0:1:38.760,189.147,24.0834,0,0.000885,0,0
0:1:40.049,191.554,24.3868,0,0.000885,0,0
0:1:41.357,194.307,24.7384,0,0.000885,0,0
0:1:42.645,196.892,25.0693,0,0.000885,0,0
0:1:43.940,199.12,25.352,0,0.000885,0,0
0:1:45.243,202.109,25.7312,0,0.000885,0,0
0:1:46.548,204.689,26.0622,0,0.000885,0,0
0:1:47.833,207.332,26.4,0,0.000885,0,0
0:1:49.129,209.912,26.7241,0,0.000885,0,0
0:1:50.409,211.904,26.9792,0,0.000885,0,0
0:1:51.712,214.662,27.3308,0,0.000885,0,0
0:1:52.999,217.006,27.6273,0,0.000885,0,0
0:1:54.287,219.764,27.9789,0,0.000885,0,0
0:1:55.576,222.46,28.3237,0,0.000885,0,0
0:1:56.878,224.809,28.6201,0,0.000885,0,0
0:1:58.160,227.389,28.9511,0,0.000885,0,0
0:1:59.445,229.266,29.1924,0,0.000885,0,0
0:2:0.734,232.784,29.6406,0,0.000885,0,0
0:2:2.034,234.777,29.8957,0,0.000885,0,0
0:2:3.315,236.832,30.1508,0,0.000885,0,0
0:2:4.600,239.706,30.5231,0,0.000885,0,0
0:2:5.893,242.637,30.8954,0,0.000885,0,0
0:2:7.193,245.101,31.2057,0,0.000885,0,0
0:2:8.475,246.743,31.4194,0,0.000885,0,0
0:2:9.759,249.265,31.7366,0,0.000885,0,0
0:2:11.062,252.961,32.2054,0,0.000885,0,0
0:2:12.351,254.309,32.3778,0,0.000885,0,0
0:2:13.654,257.65,32.8053,0,0.000885,0,0
0:2:14.947,260.114,33.1155,0,0.000885,0,0
0:2:16.248,262.107,33.3706,0,0.000885,0,0
0:2:17.548,265.158,33.7636,0,0.000885,0,0
0:2:18.840,267.796,34.0946,0,0.000885,0,0
0:2:20.131,270.145,34.3979,0,0.000885,0,0
0:2:21.434,272.609,34.7082,0,0.000885,0,0
0:2:22.742,275.363,35.0598,0,0.000885,0,0
0:2:24.050,278.121,35.4115,0,0.000885,0,0
0:2:25.349,279.82,35.6252,0,0.000885,0,0
0:2:26.650,283.223,36.0596,0,0.000885,0,0
0:2:27.949,286.038,36.4181,0,0.000885,0,0
0:2:29.244,288.503,36.7353,0,0.000885,0,0
0:2:30.553,290.789,37.0248,0,0.000885,0,0
0:2:31.856,293.196,37.3282,0,0.000885,0,0
0:2:33.135,295.891,37.673,0,0.000885,0,0
0:2:34.429,298.12,37.9556,0,0.000885,0,0
0:2:35.720,300.468,38.259,0,0.000885,0,0
0:2:37.017,303.106,38.59,0,0.000885,0,0
0:2:38.304,306.158,38.983,0,0.000885,0,0
0:2:39.583,308.738,39.307,0,0.000885,0,0
0:2:40.881,310.788,39.569,0,0.000885,0,0
0:2:42.178,313.546,39.9206,0,0.000885,0,0
0:2:43.465,316.478,40.293,0,0.000885,0,0
0:2:44.755,319,40.617,0,0.000885,0,0
0:2:46.055,320.641,40.8239,0,0.000885,0,0
0:2:47.350,322.87,41.1065,0,0.000885,0,0
0:2:48.642,325.979,41.5064,0,0.000885,0,0
0:2:49.936,328.91,41.8788,0,0.000885,0,0
0:2:51.240,331.201,42.1683,0,0.000885,0,0
0:2:52.530,333.955,42.52,0,0.000885,0,0
0:2:53.813,336.948,42.8992,0,0.000885,0,0
0:2:55.099,338.999,43.1612,0,0.000885,0,0
0:2:56.403,340.992,43.4163,0,0.000885,0,0
0:2:57.691,343.87,43.7817,0,0.000885,0,0
0:2:58.973,346.098,44.0644,0,0.000885,0,0
0:3:0.262,348.852,44.416,0,0.000885,0,0
0:3:1.567,351.903,44.809,0,0.000885,0,0
0:3:2.849,353.723,45.0366,0,0.000885,0,0
0:3:4.142,356.538,45.3951,0,0.000885,0,0
0:3:5.431,359.118,45.726,0,0.000885,0,0
0:3:6.738,362.05,46.0983,0,0.000885,0,0
0:3:8.021,364.572,46.4155,0,0.000885,0,0
0:3:9.305,366.449,46.6568,0,0.000885,0,0
0:3:10.605,369.38,47.0291,0,0.000885,0,0
0:3:11.899,371.845,47.3463,0,0.000885,0,0
0:3:13.183,374.425,47.6704,0,0.000885,0,0
0:3:14.467,376.48,47.9324,0,0.000885,0,0
0:3:15.764,378.997,48.2564,0,0.000885,0,0
0:3:17.060,382.342,48.6839,0,0.000885,0,0
0:3:18.349,384.455,48.9528,0,0.000885,0,0
0:3:19.646,386.626,49.2286,0,0.000885,0,0
0:3:20.963,389.38,49.5802,0,0.000885,0,0
0:3:22.257,393.018,50.0421,0,0.000885,0,0
0:3:23.537,395.54,50.3593,0,0.000885,0,0
0:3:24.844,397.355,50.5937,0,0.000885,0,0
0:3:26.148,399.82,50.904,0,0.000885,0,0
0:3:27.435,402.813,51.2901,0,0.000885,0,0
0:3:28.745,404.334,51.4832,0,0.000885,0,0
0:3:30.056,407.386,51.8693,0,0.000885,0,0
0:3:31.361,410.144,52.2209,0,0.000885,0,0
0:3:32.644,412.488,52.5174,0,0.000885,0,0
0:3:33.925,415.54,52.9104,0,0.000885,0,0
0:3:35.212,417.71,53.1862,0,0.000885,0,0
0:3:36.518,420.464,53.5378,0,0.000885,0,0
0:3:37.804,422.812,53.8343,0,0.000885,0,0
0:3:39.091,425.277,54.1445,0,0.000885,0,0
0:3:40.380,427.799,54.4686,0,0.000885,0,0
0:3:41.686,430.259,54.7857,0,0.000885,0,0
0:3:42.967,432.723,55.096,0,0.000885,0,0
0:3:44.264,434.836,55.3649,0,0.000885,0,0
0:3:45.565,437.474,55.7027,0,0.000885,0,0
0:3:46.858,440.819,56.1233,0,0.000885,0,0
0:3:48.162,442.927,56.3922,0,0.000885,0,0
0:3:49.462,445.685,56.7439,0,0.000885,0,0
0:3:50.765,447.678,56.999,0,0.000885,0,0
0:3:52.064,450.903,57.4126,0,0.000885,0,0
0:3:53.360,452.842,57.6609,0,0.000885,0,0
0:3:54.650,456.125,58.0745,0,0.000885,0,0
0:3:55.952,457.766,58.2814,0,0.000885,0,0
0:3:57.242,461.227,58.7226,0,0.000885,0,0
0:3:58.546,462.753,58.9226,0,0.000885,0,0
0:3:59.838,465.511,59.2673,0,0.000885,0,0
0:4:1.142,468.558,59.6603,0,0.000885,0,0
0:4:2.463,471.138,59.9844,0,0.000885,0,0
0:4:3.763,473.66,60.3084,0,0.000885,0,0
0:4:5.059,476.182,60.6325,0,0.000885,0,0
0:4:6.364,479.118,61.0048,0,0.000885,0,0
0:4:7.659,481.636,61.322,0,0.000885,0,0
0:4:8.959,483.633,61.5771,0,0.000885,0,0
0:4:10.265,486.213,61.908,0,0.000885,0,0
0:4:11.571,489.264,62.2941,0,0.000885,0,0
0:4:12.865,491.96,62.6389,0,0.000885,0,0
0:4:14.156,493.895,62.8871,0,0.000885,0,0
0:4:15.454,496.653,63.2387,0,0.000885,0,0
0:4:16.767,499.055,63.5421,0,0.000885,0,0
0:4:18.060,501.346,63.8317,0,0.000885,0,0
0:4:19.363,504.686,64.2591,0,0.000885,0,0
0:4:20.670,506.684,64.5142,0,0.000885,0,0
0:4:21.965,509.909,64.921,0,0.000885,0,0
0:4:23.265,512.373,65.2382,0,0.000885,0,0
0:4:24.562,514.308,65.4864,0,0.000885,0,0
0:4:25.870,517.003,65.8242,0,0.000885,0,0
0:4:27.165,519.583,66.1552,0,0.000885,0,0
0:4:28.465,521.754,66.431,0,0.000885,0,0
0:4:29.763,524.806,66.8171,0,0.000885,0,0
0:4:31.069,527.092,67.1136,0,0.000885,0,0
0:4:32.366,529.556,67.4238,0,0.000885,0,0
0:4:33.666,531.901,67.7272,0,0.000885,0,0
0:4:34.961,534.774,68.0926,0,0.000885,0,0
0:4:36.267,537.06,68.3822,0,0.000885,0,0
0:4:37.563,539.645,68.7063,0,0.000885,0,0
0:4:38.865,542.692,69.0993,0,0.000885,0,0
0:4:40.171,544.747,69.3613,0,0.000885,0,0
0:4:41.476,547.269,69.6784,0,0.000885,0,0
0:4:42.768,550.73,70.1197,0,0.000885,0,0
0:4:44.064,552.487,70.3472,0,0.000885,0,0
0:4:45.372,555.538,70.7333,0,0.000885,0,0
0:4:46.679,557.358,70.9677,0,0.000885,0,0
0:4:47.970,560.169,71.3263,0,0.000885,0,0
0:4:49.266,563.336,71.7262,0,0.000885,0,0
0:4:50.578,565.391,71.9882,0,0.000885,0,0
0:4:51.870,567.793,72.2915,0,0.000885,0,0
0:4:53.171,570.435,72.6294,0,0.000885,0,0
0:4:54.469,572.664,72.9121,0,0.000885,0,0
0:4:55.775,575.186,73.2361,0,0.000885,0,0
0:4:57.070,577.944,73.5877,0,0.000885,0,0
0:4:58.371,580.346,73.8911,0,0.000885,0,0
0:4:59.669,582.984,74.229,0,0.000885,0,0
0:5:0.967,585.39,74.5323,0,0.000885,0,0
0:5:2.260,588.442,74.9253,0,0.000885,0,0
0:5:3.567,590.728,75.2149,0,0.000885,0,0
0:5:4.870,593.077,75.5114,0,0.000885,0,0
0:5:6.181,594.718,75.7251,0,0.000885,0,0
0:5:7.468,595.19,75.7803,0,0.000885,0,0
0:5:8.769,598.655,76.2215,0,0.000885,0,0
0:5:10.074,602.236,76.6766,0,0.000885,0,0
0:5:11.384,602.703,76.7386,0,0.000885,0,0
0:5:12.673,574.363,73.1327,0,0.000885,0,0
0:5:13.968,540.521,68.8235,0,0.000885,0,0
0:5:15.274,450.729,57.392,0,0.000885,0,0
0:5:15.887,440.054,56.0268,0,0.000885,0,0

File: DataFile2021-07-03_075155.csv
Test ID:,Date Tested:,Time:,Test Type:,Diameter Avg. (mm):,Cyl. Corr. Factor:,Height (mm):,Age (days):,Weight (kN):,Break Type:,Ramp Rate (MPa/s):,Load at Break (kN):,Stress at Break (MPa):
12,7/3/2021,07:51,Cylinder,100,1,200,0,3.6,3,0.25,637.04,81.11
Sample Time,Load (kN),Stress (MPa),Long. Strain,Trans. Strain,Chan1 Deflection (mm),Chan2 Deflection (mm)
0:0:4.307,5.10211,0.648107,0,0.000885,0,0
0:0:5.695,8.21142,1.048,0,0.000885,0,0
0:0:7.085,10.5556,1.34448,0,0.000885,0,0
0:0:8.489,12.6107,1.60648,0,0.000885,0,0
0:0:9.899,15.4264,1.96501,0,0.000885,0,0
0:0:11.305,19.2386,2.44764,0,0.000885,0,0
0:0:12.698,22.3479,2.84753,0,0.000885,0,0
0:0:14.091,24.5141,3.12333,0,0.000885,0,0
0:0:15.504,27.45,3.49564,0,0.000885,0,0
0:0:16.903,29.9098,3.80591,0,0.000885,0,0
0:0:18.294,32.7256,4.16443,0,0.000885,0,0
0:0:19.692,35.7192,4.55054,0,0.000885,0,0
0:0:21.107,38.0056,4.84012,0,0.000885,0,0
0:0:22.499,40.937,5.21244,0,0.000885,0,0
0:0:23.894,43.8684,5.58475,0,0.000885,0,0
0:0:25.299,46.1592,5.87433,0,0.000885,0,0
0:0:26.705,49.6199,6.3156,0,0.000885,0,0
0:0:28.098,51.8485,6.59828,0,0.000885,0,0
0:0:29.494,54.6019,6.94992,0,0.000885,0,0
0:0:30.905,57.6534,7.34292,0,0.000885,0,0
0:0:32.302,59.9976,7.63939,0,0.000885,0,0
0:0:33.694,62.8133,7.99792,0,0.000885,0,0
0:0:35.101,65.8648,8.38402,0,0.000885,0,0
0:0:36.503,68.4448,8.71497,0,0.000885,0,0
0:0:37.892,71.4384,9.09418,0,0.000885,0,0
0:0:39.284,74.0184,9.42513,0,0.000885,0,0
0:0:40.699,76.4783,9.7354,0,0.000885,0,0
0:0:42.097,79.1205,10.0732,0,0.000885,0,0
0:0:43.489,81.9941,10.4387,0,0.000885,0,0
0:0:44.895,85.0411,10.8248,0,0.000885,0,0
0:0:46.308,87.5632,11.1488,0,0.000885,0,0
0:0:47.699,90.8505,11.5694,0,0.000885,0,0
0:0:49.092,93.1947,11.8659,0,0.000885,0,0
0:0:50.505,95.5434,12.1624,0,0.000885,0,0
0:0:51.902,98.7105,12.5691,0,0.000885,0,0
0:0:53.292,101.464,12.9208,0,0.000885,0,0
0:0:54.685,104.044,13.2448,0,0.000885,0,0
0:0:56.104,106.922,13.6103,0,0.000885,0,0
0:0:57.493,109.382,13.9274,0,0.000885,0,0
0:0:58.886,112.785,14.3618,0,0.000885,0,0
0:1:0.291,114.777,14.6169,0,0.000885,0,0
0:1:1.697,117.887,15.0099,0,0.000885,0,0
0:1:3.085,120.88,15.3891,0,0.000885,0,0
0:1:4.492,123.518,15.7269,0,0.000885,0,0
0:1:5.903,126.098,16.0579,0,0.000885,0,0
0:1:7.300,129.03,16.4302,0,0.000885,0,0
0:1:8.692,131.73,16.7749,0,0.000885,0,0
0:1:10.110,134.719,17.1542,0,0.000885,0,0
0:1:11.515,136.832,17.4231,0,0.000885,0,0
0:1:12.908,140.115,17.8367,0,0.000885,0,0
0:1:14.298,142.695,18.1677,0,0.000885,0,0
0:1:15.712,145.101,18.4779,0,0.000885,0,0
0:1:17.111,148.032,18.8503,0,0.000885,0,0
0:1:18.501,150.79,19.2019,0,0.000885,0,0
0:1:19.901,153.548,19.5535,0,0.000885,0,0
0:1:21.311,156.947,19.981,0,0.000885,0,0
0:1:22.704,159.469,20.3051,0,0.000885,0,0
0:1:24.094,161.639,20.5809,0,0.000885,0,0
0:1:25.503,164.513,20.9463,0,0.000885,0,0
0:1:26.903,167.097,21.2772,0,0.000885,0,0
0:1:28.296,170.554,21.7185,0,0.000885,0,0
0:1:29.697,172.609,21.9805,0,0.000885,0,0
0:1:31.112,175.776,22.3804,0,0.000885,0,0
0:1:32.507,178.649,22.7458,0,0.000885,0,0
0:1:33.898,181.407,23.0974,0,0.000885,0,0
0:1:35.306,183.752,23.3939,0,0.000885,0,0
0:1:36.706,186.919,23.8007,0,0.000885,0,0
0:1:38.099,188.796,24.0351,0,0.000885,0,0
0:1:39.499,192.021,24.4488,0,0.000885,0,0
0:1:40.904,195.188,24.8556,0,0.000885,0,0
0:1:42.299,197.417,25.1383,0,0.000885,0,0
0:1:43.687,200.174,25.4899,0,0.000885,0,0
0:1:45.088,202.99,25.8484,0,0.000885,0,0
0:1:46.497,206.215,26.2552,0,0.000885,0,0
0:1:47.891,208.853,26.5931,0,0.000885,0,0
0:1:49.279,210.85,26.8482,0,0.000885,0,0
0:1:50.685,214.249,27.2826,0,0.000885,0,0
0:1:52.079,216.068,27.5101,0,0.000885,0,0
0:1:53.459,219.88,27.9927,0,0.000885,0,0
0:1:54.850,221.757,28.234,0,0.000885,0,0
0:1:56.251,225.805,28.7511,0,0.000885,0,0
0:1:57.637,228.207,29.0545,0,0.000885,0,0
0:1:59.016,230.436,29.3372,0,0.000885,0,0
0:2:0.415,232.958,29.6612,0,0.000885,0,0
0:2:1.809,236.067,30.0542,0,0.000885,0,0
0:2:3.198,238.416,30.3576,0,0.000885,0,0
0:2:4.597,241.405,30.7368,0,0.000885,0,0
0:2:5.997,243.811,31.0402,0,0.000885,0,0
0:2:7.399,247.152,31.4677,0,0.000885,0,0
0:2:8.787,249.91,31.8193,0,0.000885,0,0
0:2:10.185,252.432,32.1434,0,0.000885,0,0
0:2:11.578,255.248,32.5019,0,0.000885,0,0
0:2:12.987,257.77,32.819,0,0.000885,0,0
0:2:14.387,260.586,33.1776,0,0.000885,0,0
0:2:15.793,263.811,33.5913,0,0.000885,0,0
0:2:17.191,266.097,33.8808,0,0.000885,0,0
0:2:18.591,269.086,34.26,0,0.000885,0,0
0:2:19.979,271.902,34.6186,0,0.000885,0,0
0:2:21.382,274.66,34.9702,0,0.000885,0,0
0:2:22.762,277.533,35.3356,0,0.000885,0,0
0:2:24.144,280.113,35.6666,0,0.000885,0,0
0:2:25.551,282.756,36.0044,0,0.000885,0,0
0:2:26.940,284.691,36.2457,0,0.000885,0,0
0:2:28.322,288.151,36.687,0,0.000885,0,0
0:2:29.713,291.256,37.0869,0,0.000885,0,0
0:2:31.111,293.605,37.3834,0,0.000885,0,0
0:2:32.493,295.54,37.6316,0,0.000885,0,0
0:2:33.904,299.294,38.1073,0,0.000885,0,0
0:2:35.304,301.465,38.3831,0,0.000885,0,0
0:2:36.693,304.574,38.7761,0,0.000885,0,0
0:2:38.077,307.328,39.1277,0,0.000885,0,0
0:2:39.455,309.792,39.4449,0,0.000885,0,0
0:2:40.862,312.492,39.7896,0,0.000885,0,0
0:2:42.250,315.539,40.1758,0,0.000885,0,0
0:2:43.629,317.71,40.4515,0,0.000885,0,0
0:2:45.028,321.055,40.879,0,0.000885,0,0
0:2:46.420,323.986,41.2513,0,0.000885,0,0
0:2:47.798,326.508,41.5754,0,0.000885,0,0
0:2:49.196,329.088,41.8994,0,0.000885,0,0
0:2:50.604,331.61,42.2235,0,0.000885,0,0
0:2:52.004,334.075,42.5338,0,0.000885,0,0
0:2:53.402,337.242,42.9405,0,0.000885,0,0
0:2:54.798,339.35,43.2094,0,0.000885,0,0
0:2:56.204,342.575,43.6162,0,0.000885,0,0
0:2:57.604,345.391,43.9748,0,0.000885,0,0
0:2:58.993,348.207,44.3333,0,0.000885,0,0
0:3:0.398,350.907,44.678,0,0.000885,0,0
0:3:1.808,353.66,45.0297,0,0.000885,0,0
0:3:3.194,356.245,45.3606,0,0.000885,0,0
0:3:4.606,359.234,45.7398,0,0.000885,0,0
0:3:6.011,362.228,46.119,0,0.000885,0,0
0:3:7.404,364.981,46.4707,0,0.000885,0,0
0:3:8.804,367.623,46.8085,0,0.000885,0,0
0:3:10.201,370.377,47.1601,0,0.000885,0,0
0:3:11.606,373.019,47.4911,0,0.000885,0,0
0:3:12.994,375.479,47.8082,0,0.000885,0,0
0:3:14.384,377.827,48.1047,0,0.000885,0,0
0:3:15.785,381.168,48.5322,0,0.000885,0,0
0:3:17.207,383.459,48.8218,0,0.000885,0,0
0:3:18.595,386.39,49.1941,0,0.000885,0,0
0:3:19.994,389.437,49.5871,0,0.000885,0,0
0:3:21.388,392.022,49.9111,0,0.000885,0,0
0:3:22.811,395.189,50.3179,0,0.000885,0,0
0:3:24.198,397.649,50.6282,0,0.000885,0,0
0:3:25.602,399.997,50.9316,0,0.000885,0,0
0:3:26.994,402.52,51.2487,0,0.000885,0,0
0:3:28.393,405.98,51.69,0,0.000885,0,0
0:3:29.780,408.56,52.0209,0,0.000885,0,0
0:3:31.184,411.67,52.4139,0,0.000885,0,0
0:3:32.564,414.423,52.7656,0,0.000885,0,0
0:3:33.946,416.887,53.0827,0,0.000885,0,0
0:3:35.351,419.939,53.4688,0,0.000885,0,0
0:3:36.741,422.519,53.7998,0,0.000885,0,0
0:3:38.122,424.983,54.1101,0,0.000885,0,0
0:3:39.510,427.621,54.4479,0,0.000885,0,0
0:3:40.914,429.907,54.7375,0,0.000885,0,0
0:3:42.295,433.426,55.1856,0,0.000885,0,0
0:3:43.691,436.242,55.5442,0,0.000885,0,0
0:3:45.099,438.354,55.8131,0,0.000885,0,0
0:3:46.508,441.637,56.2336,0,0.000885,0,0
0:3:47.905,444.395,56.5853,0,0.000885,0,0
0:3:49.303,446.682,56.8749,0,0.000885,0,0
0:3:50.709,449.675,57.2541,0,0.000885,0,0
0:3:52.116,452.313,57.5919,0,0.000885,0,0
0:3:53.496,455.187,57.9573,0,0.000885,0,0
0:3:54.902,458.176,58.3365,0,0.000885,0,0
0:3:56.292,460.582,58.6399,0,0.000885,0,0
0:3:57.693,463.634,59.0329,0,0.000885,0,0
0:3:59.113,466.214,59.357,0,0.000885,0,0
0:4:0.518,468.909,59.7017,0,0.000885,0,0
0:4:1.912,472.019,60.1016,0,0.000885,0,0
0:4:3.312,474.719,60.4394,0,0.000885,0,0
0:4:4.720,476.476,60.667,0,0.000885,0,0
0:4:6.116,480.23,61.1427,0,0.000885,0,0
0:4:7.500,482.223,61.3978,0,0.000885,0,0
0:4:8.900,485.039,61.7563,0,0.000885,0,0
0:4:10.299,487.912,62.1218,0,0.000885,0,0
0:4:11.712,490.319,62.432,0,0.000885,0,0
0:4:13.113,493.25,62.8043,0,0.000885,0,0
0:4:14.514,496.181,63.1767,0,0.000885,0,0
0:4:15.918,499.233,63.5628,0,0.000885,0,0
0:4:17.312,501.519,63.8523,0,0.000885,0,0
0:4:18.712,504.513,64.2385,0,0.000885,0,0
0:4:20.111,507.502,64.6177,0,0.000885,0,0
0:4:21.499,510.318,64.9762,0,0.000885,0,0
0:4:22.892,513.018,65.3209,0,0.000885,0,0
0:4:24.283,515.656,65.6519,0,0.000885,0,0
0:4:25.690,518.414,66.0035,0,0.000885,0,0
0:4:27.094,520.758,66.3069,0,0.000885,0,0
0:4:28.505,523.925,66.7068,0,0.000885,0,0
0:4:29.925,527.15,67.1205,0,0.000885,0,0
0:4:31.314,529.321,67.3963,0,0.000885,0,0
0:4:32.718,532.078,67.7479,0,0.000885,0,0
0:4:34.117,534.423,68.0444,0,0.000885,0,0
0:4:35.523,537.296,68.4098,0,0.000885,0,0
0:4:36.917,540.757,68.851,0,0.000885,0,0
0:4:38.299,542.986,69.1337,0,0.000885,0,0
0:4:39.696,546.095,69.5336,0,0.000885,0,0
0:4:41.094,548.323,69.8163,0,0.000885,0,0
0:4:42.479,551.548,70.2231,0,0.000885,0,0
0:4:43.859,553.19,70.4368,0,0.000885,0,0
0:4:45.264,556.063,70.8023,0,0.000885,0,0
0:4:46.651,558.763,71.147,0,0.000885,0,0
0:4:48.035,562.282,71.5952,0,0.000885,0,0
0:4:49.425,564.217,71.8365,0,0.000885,0,0
0:4:50.823,567.856,72.2984,0,0.000885,0,0
0:4:52.207,570.609,72.6501,0,0.000885,0,0
0:4:53.618,573.483,73.0155,0,0.000885,0,0
0:4:55.017,575.538,73.2775,0,0.000885,0,0
0:4:56.417,578.589,73.6705,0,0.000885,0,0
0:4:57.818,580.23,73.8773,0,0.000885,0,0
0:4:59.204,582.984,74.229,0,0.000885,0,0
0:5:0.611,585.626,74.5668,0,0.000885,0,0
0:5:2.010,588.38,74.9184,0,0.000885,0,0
0:5:3.406,591.315,75.2907,0,0.000885,0,0
0:5:4.825,594.661,75.7113,0,0.000885,0,0
0:5:6.222,597.712,76.1043,0,0.000885,0,0
0:5:7.612,600.941,76.5111,0,0.000885,0,0
0:5:9.011,603.935,76.8972,0,0.000885,0,0
0:5:10.427,606.755,77.2558,0,0.000885,0,0
0:5:11.817,608.632,77.4902,0,0.000885,0,0
0:5:13.208,611.742,77.8901,0,0.000885,0,0
0:5:14.608,614.206,78.2003,0,0.000885,0,0
0:5:16.012,616.906,78.5451,0,0.000885,0,0
0:5:17.411,619.611,78.8898,0,0.000885,0,0
0:5:18.813,621.955,79.1932,0,0.000885,0,0
0:5:20.225,625.42,79.6276,0,0.000885,0,0
0:5:21.619,627.942,79.9516,0,0.000885,0,0
0:5:23.008,630.291,80.2481,0,0.000885,0,0
0:5:24.402,633.169,80.6204,0,0.000885,0,0
0:5:25.815,635.869,80.9582,0,0.000885,0,0
0:5:27.210,637.043,81.1099,0,0.000885,0,0
0:5:28.589,618.668,78.7726,0,0.000885,0,0