Folder: Experiment-Files (part 80)

File: DataFile2021-07-17_043308.csv
Test ID:,Date Tested:,Time:,Test Type:,Diameter Avg. (mm):,Cyl. Corr. Factor:,Height (mm):,Age (days):,Weight (kN):,Break Type:,Ramp Rate (MPa/s):,Load at Break (kN):,Stress at Break (MPa):
12,7/17/2021,04:33,Cylinder,100,1,200,0,3.6,3,0.25,1225.03,155.97
Sample Time,Load (kN),Stress (MPa),Long. Strain,Trans. Strain,Chan1 Deflection (mm),Chan2 Deflection (mm)
0:0:19.131,5.21776,0.661897,0,0.000885,0,0
0:0:21.726,9.61706,1.22727,0,0.000885,0,0
0:0:24.332,14.43,1.83401,0,0.000885,0,0
0:0:26.943,20.057,2.55106,0,0.000885,0,0
0:0:29.534,26.16,3.33017,0,0.000885,0,0
0:0:32.143,31.0263,3.9507,0,0.000885,0,0
0:0:34.741,35.5991,4.52986,0,0.000885,0,0
0:0:37.348,40.8792,5.20554,0,0.000885,0,0
0:0:39.944,45.572,5.80539,0,0.000885,0,0
0:0:42.543,51.0255,6.49486,0,0.000885,0,0
0:0:45.140,56.7727,7.22571,0,0.000885,0,0
0:0:47.740,60.8784,7.74971,0,0.000885,0,0
0:0:50.351,66.7456,8.50124,0,0.000885,0,0
0:0:52.949,71.3183,9.0804,0,0.000885,0,0
0:0:55.556,76.6562,9.76298,0,0.000885,0,0
0:0:58.147,81.5848,10.3904,0,0.000885,0,0
0:1:0.756,86.9183,11.0661,0,0.000885,0,0
0:1:3.347,92.2561,11.7487,0,0.000885,0,0
0:1:5.957,96.949,12.3416,0,0.000885,0,0
0:1:8.543,102.403,13.038,0,0.000885,0,0
0:1:11.153,107.798,13.7275,0,0.000885,0,0
0:1:13.741,112.549,14.3273,0,0.000885,0,0
0:1:16.354,117.3,14.934,0,0.000885,0,0
0:1:18.940,122.695,15.6235,0,0.000885,0,0
0:1:21.554,127.797,16.2716,0,0.000885,0,0
0:1:24.143,132.726,16.8991,0,0.000885,0,0
0:1:26.755,138.415,17.623,0,0.000885,0,0
0:1:29.343,142.872,18.1884,0,0.000885,0,0
0:1:31.956,148.446,18.8985,0,0.000885,0,0
0:1:34.543,152.961,19.4777,0,0.000885,0,0
0:1:37.149,158.415,20.1672,0,0.000885,0,0
0:1:39.739,163.517,20.8222,0,0.000885,0,0
0:1:42.345,168.387,21.4427,0,0.000885,0,0
0:1:44.951,173.547,22.0977,0,0.000885,0,0
0:1:47.554,179.179,22.8148,0,0.000885,0,0
0:1:50.151,183.164,23.3181,0,0.000885,0,0
0:1:52.753,188.974,24.0627,0,0.000885,0,0
0:1:55.351,193.956,24.697,0,0.000885,0,0
0:1:57.925,199.645,25.421,0,0.000885,0,0
0:2:0.533,204.044,25.9794,0,0.000885,0,0
0:2:3.142,209.146,26.6276,0,0.000885,0,0
0:2:5.733,214.075,27.255,0,0.000885,0,0
0:2:8.342,219.471,27.9445,0,0.000885,0,0
0:2:10.943,224.924,28.6408,0,0.000885,0,0
0:2:13.538,229.502,29.22,0,0.000885,0,0
0:2:16.138,235.129,29.937,0,0.000885,0,0
0:2:18.733,240.057,30.5645,0,0.000885,0,0
0:2:21.347,244.924,31.185,0,0.000885,0,0
0:2:23.939,249.968,31.8262,0,0.000885,0,0
0:2:26.535,255.835,32.5708,0,0.000885,0,0
0:2:29.141,260.644,33.1845,0,0.000885,0,0
0:2:31.730,265.101,33.7567,0,0.000885,0,0
0:2:34.351,271.493,34.5703,0,0.000885,0,0
0:2:36.949,275.247,35.0461,0,0.000885,0,0
0:2:39.539,280.994,35.7769,0,0.000885,0,0
0:2:42.154,286.038,36.4181,0,0.000885,0,0
0:2:44.737,290.496,36.9904,0,0.000885,0,0
0:2:47.350,295.891,37.673,0,0.000885,0,0
0:2:49.956,301.051,38.328,0,0.000885,0,0
0:2:52.547,305.802,38.9347,0,0.000885,0,0
0:2:55.150,311.669,39.6862,0,0.000885,0,0
0:2:57.748,316.242,40.2654,0,0.000885,0,0
0:3:0.357,321.17,40.8928,0,0.000885,0,0
0:3:2.949,326.802,41.6099,0,0.000885,0,0
0:3:5.550,332.255,42.3062,0,0.000885,0,0
0:3:8.151,337.3,42.9474,0,0.000885,0,0
0:3:10.752,341.873,43.5266,0,0.000885,0,0
0:3:13.326,346.975,44.1816,0,0.000885,0,0
0:3:15.917,352.197,44.8435,0,0.000885,0,0
0:3:18.483,357.828,45.5606,0,0.000885,0,0
0:3:21.077,362.637,46.1742,0,0.000885,0,0
0:3:23.653,367.503,46.7947,0,0.000885,0,0
0:3:26.247,372.018,47.367,0,0.000885,0,0
0:3:28.855,378.295,48.1668,0,0.000885,0,0
0:3:31.445,382.578,48.7115,0,0.000885,0,0
0:3:34.042,387.796,49.3734,0,0.000885,0,0
0:3:36.633,392.667,49.9939,0,0.000885,0,0
0:3:39.201,397.769,50.642,0,0.000885,0,0
0:3:41.795,403.107,51.3246,0,0.000885,0,0
0:3:44.364,408.031,51.952,0,0.000885,0,0
0:3:46.957,412.546,52.5243,0,0.000885,0,0
0:3:49.537,418.119,53.2344,0,0.000885,0,0
0:3:52.146,423.631,53.9377,0,0.000885,0,0
0:3:54.749,427.679,54.4548,0,0.000885,0,0
0:3:57.354,433.777,55.2339,0,0.000885,0,0
0:3:59.943,438.412,55.82,0,0.000885,0,0
0:4:2.523,443.341,56.4474,0,0.000885,0,0
0:4:5.104,448.616,57.1231,0,0.000885,0,0
0:4:7.687,454.012,57.8056,0,0.000885,0,0
0:4:10.273,458.647,58.3986,0,0.000885,0,0
0:4:12.863,463.571,59.026,0,0.000885,0,0
0:4:15.452,468.851,59.6948,0,0.000885,0,0
0:4:18.052,474.305,60.3912,0,0.000885,0,0
0:4:20.659,479.349,61.0324,0,0.000885,0,0
0:4:23.245,484.571,61.6943,0,0.000885,0,0
0:4:25.862,489.322,62.301,0,0.000885,0,0
0:4:28.430,494.304,62.9353,0,0.000885,0,0
0:4:31.030,499.704,63.6248,0,0.000885,0,0
0:4:33.602,504.806,64.2729,0,0.000885,0,0
0:4:36.199,509.909,64.921,0,0.000885,0,0
0:4:38.772,514.717,65.5347,0,0.000885,0,0
0:4:41.367,519.935,66.2035,0,0.000885,0,0
0:4:43.946,524.979,66.8447,0,0.000885,0,0
0:4:46.561,530.201,67.5066,0,0.000885,0,0
0:4:49.161,535.068,68.1271,0,0.000885,0,0
0:4:51.760,540.406,68.8097,0,0.000885,0,0
0:4:54.342,545.508,69.4578,0,0.000885,0,0
0:4:56.930,550.961,70.1542,0,0.000885,0,0
0:4:59.516,555.538,70.7333,0,0.000885,0,0
0:5:2.096,560.814,71.4021,0,0.000885,0,0
0:5:4.678,565.155,71.9606,0,0.000885,0,0
0:5:7.257,571.08,72.7121,0,0.000885,0,0
0:5:9.851,575.653,73.2913,0,0.000885,0,0
0:5:12.439,580.991,73.9739,0,0.000885,0,0
0:5:15.027,586.271,74.6495,0,0.000885,0,0
0:5:17.610,591.315,75.2907,0,0.000885,0,0
0:5:20.217,596.013,75.8837,0,0.000885,0,0
0:5:22.802,602.116,76.6628,0,0.000885,0,0
0:5:25.407,606.342,77.2006,0,0.000885,0,0
0:5:27.991,611.804,77.897,0,0.000885,0,0
0:5:30.596,616.439,78.4899,0,0.000885,0,0
0:5:33.186,621.839,79.1725,0,0.000885,0,0
0:5:35.794,626.71,79.793,0,0.000885,0,0
0:5:38.375,631.643,80.4204,0,0.000885,0,0
0:5:40.983,637.279,81.1375,0,0.000885,0,0
0:5:43.565,641.447,81.6684,0,0.000885,0,0
0:5:46.174,647.256,82.413,0,0.000885,0,0
0:5:48.759,652.305,83.0542,0,0.000885,0,0
0:5:51.369,657.296,83.6886,0,0.000885,0,0
0:5:53.970,662.167,84.3091,0,0.000885,0,0
0:5:56.581,667.918,85.0399,0,0.000885,0,0
0:5:59.173,672.616,85.6398,0,0.000885,0,0
0:6:1.769,677.722,86.2879,0,0.000885,0,0
0:6:4.359,682.944,86.9567,0,0.000885,0,0
0:6:6.953,687.82,87.5772,0,0.000885,0,0
0:6:9.547,693.042,88.2391,0,0.000885,0,0
0:6:12.151,698.264,88.9079,0,0.000885,0,0
0:6:14.774,703.255,89.5422,0,0.000885,0,0
0:6:17.363,708.597,90.2248,0,0.000885,0,0
0:6:19.981,713.704,90.8729,0,0.000885,0,0
0:6:22.563,718.575,91.4934,0,0.000885,0,0
0:6:25.169,723.566,92.1277,0,0.000885,0,0
0:6:27.759,728.85,92.7965,0,0.000885,0,0
0:6:30.364,734.072,93.4653,0,0.000885,0,0
0:6:32.943,739.063,94.0996,0,0.000885,0,0
0:6:35.549,744.285,94.7684,0,0.000885,0,0
0:6:38.131,749.276,95.4028,0,0.000885,0,0
0:6:40.738,754.792,96.106,0,0.000885,0,0
0:6:43.320,759.605,96.7128,0,0.000885,0,0
0:6:45.928,764.654,97.3609,0,0.000885,0,0
0:6:48.513,769.938,98.0297,0,0.000885,0,0
0:6:51.122,774.751,98.6433,0,0.000885,0,0
0:6:53.704,779.506,99.25,0,0.000885,0,0
0:6:56.311,785.142,99.9671,0,0.000885,0,0
0:6:58.897,789.31,100.498,0,0.000885,0,0
0:7:1.496,795.355,101.27,0,0.000885,0,0
0:7:4.090,800.635,101.939,0,0.000885,0,0
0:7:6.686,804.803,102.47,0,0.000885,0,0
0:7:9.277,810.146,103.152,0,0.000885,0,0
0:7:11.876,815.31,103.807,0,0.000885,0,0
0:7:14.464,821.004,104.531,0,0.000885,0,0
0:7:17.067,825.292,105.076,0,0.000885,0,0
0:7:19.669,830.928,105.8,0,0.000885,0,0
0:7:22.282,835.741,106.407,0,0.000885,0,0
0:7:24.893,841.257,107.11,0,0.000885,0,0
0:7:27.476,846.127,107.731,0,0.000885,0,0
0:7:30.079,851.412,108.406,0,0.000885,0,0
0:7:32.680,856.403,109.041,0,0.000885,0,0
0:7:35.286,861.331,109.668,0,0.000885,0,0
0:7:37.876,866.674,110.351,0,0.000885,0,0
0:7:40.482,872.132,111.04,0,0.000885,0,0
0:7:43.060,876.3,111.571,0,0.000885,0,0
0:7:45.667,882.287,112.336,0,0.000885,0,0
0:7:48.265,886.926,112.929,0,0.000885,0,0
0:7:50.870,892.269,113.605,0,0.000885,0,0
0:7:53.482,896.846,114.191,0,0.000885,0,0
0:7:56.086,901.953,114.839,0,0.000885,0,0
0:7:58.673,906.881,115.467,0,0.000885,0,0
0:8:1.279,912.695,116.211,0,0.000885,0,0
0:8:3.884,917.624,116.839,0,0.000885,0,0
0:8:6.483,923.317,117.563,0,0.000885,0,0
0:8:9.093,927.485,118.093,0,0.000885,0,0
0:8:11.689,932.712,118.755,0,0.000885,0,0
0:8:14.291,938.464,119.486,0,0.000885,0,0
0:8:16.887,942.925,120.058,0,0.000885,0,0
0:8:19.496,948.147,120.72,0,0.000885,0,0
0:8:22.090,953.432,121.396,0,0.000885,0,0
0:8:24.692,958.423,122.03,0,0.000885,0,0
0:8:27.286,963.173,122.637,0,0.000885,0,0
0:8:29.894,968.574,123.32,0,0.000885,0,0
0:8:32.487,973.449,123.94,0,0.000885,0,0
0:8:35.101,979.085,124.664,0,0.000885,0,0
0:8:37.684,984.129,125.305,0,0.000885,0,0
0:8:40.295,988.826,125.898,0,0.000885,0,0
0:8:42.884,993.933,126.553,0,0.000885,0,0
0:8:45.501,1000.1,127.339,0,0.000885,0,0
0:8:48.089,1004.21,127.856,0,0.000885,0,0
0:8:50.694,1009.67,128.553,0,0.000885,0,0
0:8:53.293,1015.01,129.235,0,0.000885,0,0
0:8:55.900,1020.17,129.89,0,0.000885,0,0
0:8:58.490,1024.63,130.463,0,0.000885,0,0
0:9:1.094,1029.8,131.118,0,0.000885,0,0
0:9:3.685,1035.08,131.793,0,0.000885,0,0
0:9:6.290,1040.13,132.434,0,0.000885,0,0
0:9:8.888,1044.95,133.048,0,0.000885,0,0
0:9:11.493,1050.23,133.717,0,0.000885,0,0
0:9:14.090,1055.39,134.379,0,0.000885,0,0
0:9:16.695,1060.56,135.034,0,0.000885,0,0
0:9:19.301,1065.9,135.716,0,0.000885,0,0
0:9:21.890,1070.89,136.351,0,0.000885,0,0
0:9:24.508,1075.94,136.992,0,0.000885,0,0
0:9:27.097,1080.34,137.55,0,0.000885,0,0
0:9:29.698,1086.27,138.309,0,0.000885,0,0
0:9:32.299,1091.32,138.95,0,0.000885,0,0
0:9:34.908,1096.54,139.619,0,0.000885,0,0
0:9:37.495,1101.53,140.253,0,0.000885,0,0
0:9:40.106,1106.22,140.846,0,0.000885,0,0
0:9:42.690,1111.45,141.515,0,0.000885,0,0
0:9:45.305,1117.09,142.232,0,0.000885,0,0
0:9:47.895,1121.55,142.797,0,0.000885,0,0
0:9:50.503,1126.89,143.48,0,0.000885,0,0
0:9:53.092,1132.17,144.156,0,0.000885,0,0
0:9:55.698,1137.16,144.79,0,0.000885,0,0
0:9:58.298,1142.09,145.417,0,0.000885,0,0
0:10:0.904,1147.49,146.1,0,0.000885,0,0
0:10:3.492,1152.25,146.707,0,0.000885,0,0
0:10:6.106,1158.12,147.458,0,0.000885,0,0
0:10:8.696,1162.69,148.037,0,0.000885,0,0
0:10:11.302,1167.86,148.699,0,0.000885,0,0
0:10:13.899,1173.02,149.354,0,0.000885,0,0
0:10:16.505,1177.72,149.954,0,0.000885,0,0
0:10:19.082,1182.88,150.609,0,0.000885,0,0
0:10:21.698,1187.7,151.223,0,0.000885,0,0
0:10:24.313,1195.45,152.209,0,0.000885,0,0
0:10:26.899,1197.62,152.484,0,0.000885,0,0
0:10:29.506,1203.37,153.215,0,0.000885,0,0
0:10:32.103,1207.78,153.781,0,0.000885,0,0
0:10:34.709,1211.77,154.284,0,0.000885,0,0
0:10:37.297,1219.87,155.318,0,0.000885,0,0
0:10:39.913,1222.86,155.697,0,0.000885,0,0
0:10:42.073,888.919,113.184,0,0.000885,0,0

File: DataFile2021-07-17_044857.csv
Test ID:,Date Tested:,Time:,Test Type:,Diameter Avg. (mm):,Cyl. Corr. Factor:,Height (mm):,Age (days):,Weight (kN):,Break Type:,Ramp Rate (MPa/s):,Load at Break (kN):,Stress at Break (MPa):
12,7/17/2021,04:48,Cylinder,100,1,200,0,3.6,3,0.25,1282.38,163.27
Sample Time,Load (kN),Stress (MPa),Long. Strain,Trans. Strain,Chan1 Deflection (mm),Chan2 Deflection (mm)
0:0:6.674,5.15994,0.655002,0,0.000885,0,0
0:0:9.489,10.1464,1.28932,0,0.000885,0,0
0:0:12.281,15.6577,1.99258,0,0.000885,0,0
0:0:15.089,20.9956,2.67517,0,0.000885,0,0
0:0:17.898,27.8014,3.53701,0,0.000885,0,0
0:0:20.695,32.6677,4.15754,0,0.000885,0,0
0:0:23.500,37.89,4.82633,0,0.000885,0,0
0:0:26.292,43.4013,5.5227,0,0.000885,0,0
0:0:29.110,49.0906,6.25354,0,0.000885,0,0
0:0:31.900,54.8377,6.98439,0,0.000885,0,0
0:0:34.705,60.1177,7.65318,0,0.000885,0,0
0:0:37.504,65.5712,8.34955,0,0.000885,0,0
0:0:40.304,71.0248,9.04592,0,0.000885,0,0
0:0:43.108,76.6562,9.76298,0,0.000885,0,0
0:0:45.900,81.9941,10.4387,0,0.000885,0,0
0:0:48.708,87.799,11.1764,0,0.000885,0,0
0:0:51.495,92.7855,11.8107,0,0.000885,0,0
0:0:54.302,98.4747,12.5416,0,0.000885,0,0
0:0:57.099,104.337,13.2862,0,0.000885,0,0
0:0:59.904,109.733,13.9688,0,0.000885,0,0
0:1:2.704,114.898,14.6307,0,0.000885,0,0
0:1:5.504,120.76,15.3753,0,0.000885,0,0
0:1:8.315,126.685,16.1268,0,0.000885,0,0
0:1:11.102,131.494,16.7405,0,0.000885,0,0
0:1:13.915,137.299,17.4851,0,0.000885,0,0
0:1:16.705,142.872,18.1884,0,0.000885,0,0
0:1:19.513,148.21,18.871,0,0.000885,0,0
0:1:22.303,153.077,19.4915,0,0.000885,0,0
0:1:25.109,158.766,20.2154,0,0.000885,0,0
0:1:27.916,165.042,21.0152,0,0.000885,0,0
0:1:30.706,169.851,21.6289,0,0.000885,0,0
0:1:33.514,175.367,22.3252,0,0.000885,0,0
0:1:36.300,181.287,23.0836,0,0.000885,0,0
0:1:39.111,186.389,23.7318,0,0.000885,0,0
0:1:41.898,191.669,24.4074,0,0.000885,0,0
0:1:44.702,198.062,25.221,0,0.000885,0,0
0:1:47.487,202.932,25.8347,0,0.000885,0,0
0:1:50.274,208.853,26.5931,0,0.000885,0,0
0:1:53.059,213.724,27.2136,0,0.000885,0,0
0:1:55.827,219.177,27.9031,0,0.000885,0,0
0:1:58.622,225.511,28.7098,0,0.000885,0,0
0:2:1.395,230.204,29.3096,0,0.000885,0,0
0:2:4.195,235.658,30.006,0,0.000885,0,0
0:2:6.980,241.289,30.723,0,0.000885,0,0
0:2:9.788,247.036,31.4539,0,0.000885,0,0
0:2:12.606,252.606,32.164,0,0.000885,0,0
0:2:15.406,257.77,32.819,0,0.000885,0,0
0:2:18.209,263.046,33.4947,0,0.000885,0,0
0:2:20.995,268.913,34.2394,0,0.000885,0,0
0:2:23.785,274.131,34.9013,0,0.000885,0,0
0:2:26.568,279.237,35.5563,0,0.000885,0,0
0:2:29.359,285.393,36.3354,0,0.000885,0,0
0:2:32.127,291.198,37.08,0,0.000885,0,0
0:2:34.912,296.185,37.7143,0,0.000885,0,0
0:2:37.709,301.638,38.4038,0,0.000885,0,0
0:2:40.496,306.74,39.0588,0,0.000885,0,0
0:2:43.311,312.43,39.7827,0,0.000885,0,0
0:2:46.099,318.177,40.5136,0,0.000885,0,0
0:2:48.904,323.283,41.1617,0,0.000885,0,0
0:2:51.685,328.737,41.8581,0,0.000885,0,0
0:2:54.488,335.071,42.6648,0,0.000885,0,0
0:2:57.256,339.88,43.2715,0,0.000885,0,0
0:3:0.043,345.863,44.0368,0,0.000885,0,0
0:3:2.831,350.787,44.6642,0,0.000885,0,0
0:3:5.610,356.245,45.3606,0,0.000885,0,0
0:3:8.411,362.107,46.1052,0,0.000885,0,0
0:3:11.188,367.036,46.7327,0,0.000885,0,0
0:3:13.983,372.663,47.4497,0,0.000885,0,0
0:3:16.751,377.827,48.1047,0,0.000885,0,0
0:3:19.538,384.104,48.9045,0,0.000885,0,0
0:3:22.314,389.264,49.5595,0,0.000885,0,0
0:3:25.093,394.482,50.2283,0,0.000885,0,0
0:3:27.920,400.994,51.0557,0,0.000885,0,0
0:3:30.705,405.629,51.6486,0,0.000885,0,0
0:3:33.508,411.025,52.3312,0,0.000885,0,0
0:3:36.310,417.181,53.1172,0,0.000885,0,0
0:3:39.109,422.399,53.7791,0,0.000885,0,0
0:3:41.902,427.505,54.4341,0,0.000885,0,0
0:3:44.700,432.959,55.1236,0,0.000885,0,0
0:3:47.496,438.528,55.8337,0,0.000885,0,0
0:3:50.289,444.102,56.5439,0,0.000885,0,0
0:3:53.082,449.319,57.2127,0,0.000885,0,0
0:3:55.844,455.071,57.9435,0,0.000885,0,0
0:3:58.635,460.64,58.6537,0,0.000885,0,0
0:4:1.413,466.387,59.3845,0,0.000885,0,0
0:4:4.217,470.907,59.9568,0,0.000885,0,0
0:4:7.015,476.827,60.7083,0,0.000885,0,0
0:4:9.801,482.343,61.4116,0,0.000885,0,0
0:4:12.606,488.032,62.1356,0,0.000885,0,0
0:4:15.406,493.192,62.7974,0,0.000885,0,0
0:4:18.212,499.411,63.5835,0,0.000885,0,0
0:4:20.971,503.868,64.1557,0,0.000885,0,0
0:4:23.769,510.082,64.9486,0,0.000885,0,0
0:4:26.537,515.771,65.6726,0,0.000885,0,0
0:4:29.323,521.167,66.3551,0,0.000885,0,0
0:4:32.121,526.269,67.0101,0,0.000885,0,0
0:4:34.917,531.491,67.672,0,0.000885,0,0
0:4:37.720,537.296,68.4098,0,0.000885,0,0
0:4:40.496,542.928,69.1268,0,0.000885,0,0
0:4:43.280,548.145,69.7956,0,0.000885,0,0
0:4:46.042,553.603,70.4851,0,0.000885,0,0
0:4:48.832,558.879,71.1608,0,0.000885,0,0
0:4:51.601,564.51,71.8778,0,0.000885,0,0
0:4:54.411,570.142,72.5949,0,0.000885,0,0
0:4:57.207,575.302,73.2499,0,0.000885,0,0
0:5:0.025,581.463,74.0359,0,0.000885,0,0
0:5:2.825,586.858,74.7185,0,0.000885,0,0
0:5:5.624,592.138,75.3942,0,0.000885,0,0
0:5:8.430,597.481,76.0768,0,0.000885,0,0
0:5:11.218,603.352,76.8214,0,0.000885,0,0
0:5:14.028,608.517,77.4764,0,0.000885,0,0
0:5:16.813,614.095,78.1865,0,0.000885,0,0
0:5:19.611,619.789,78.9105,0,0.000885,0,0
0:5:22.420,624.895,79.5655,0,0.000885,0,0
0:5:25.207,630.237,80.2412,0,0.000885,0,0
0:5:28.025,636.162,80.9996,0,0.000885,0,0
0:5:30.814,641.389,81.6615,0,0.000885,0,0
0:5:33.617,646.496,82.3165,0,0.000885,0,0
0:5:36.424,652.069,83.0267,0,0.000885,0,0
0:5:39.225,657.705,83.7437,0,0.000885,0,0
0:5:42.015,663.225,84.447,0,0.000885,0,0
0:5:44.808,669.271,85.2123,0,0.000885,0,0
0:5:47.630,674.377,85.8673,0,0.000885,0,0
0:5:50.422,679.662,86.5361,0,0.000885,0,0
0:5:53.232,685.587,87.2945,0,0.000885,0,0
0:5:56.014,690.871,87.9633,0,0.000885,0,0
0:5:58.827,696.329,88.6597,0,0.000885,0,0
0:6:1.620,701.965,89.3767,0,0.000885,0,0
0:6:4.420,707.485,90.08,0,0.000885,0,0
0:6:7.214,712.885,90.7695,0,0.000885,0,0
0:6:10.016,718.165,91.4383,0,0.000885,0,0
0:6:12.822,724.037,92.1898,0,0.000885,0,0
0:6:15.600,730.376,92.9965,0,0.000885,0,0
0:6:18.404,734.486,93.5205,0,0.000885,0,0
0:6:21.181,740.531,94.2858,0,0.000885,0,0
0:6:23.989,745.58,94.927,0,0.000885,0,0
0:6:26.782,751.389,95.6717,0,0.000885,0,0
0:6:29.572,756.731,96.3473,0,0.000885,0,0
0:6:32.371,761.838,97.0023,0,0.000885,0,0
0:6:35.154,767.652,97.7401,0,0.000885,0,0
0:6:37.963,773.577,98.4985,0,0.000885,0,0
0:6:40.743,778.452,99.1121,0,0.000885,0,0
0:6:43.549,784.319,99.8637,0,0.000885,0,0
0:6:46.330,789.662,100.546,0,0.000885,0,0
0:6:49.133,795.298,101.263,0,0.000885,0,0
0:6:51.924,800.756,101.953,0,0.000885,0,0
0:6:54.730,806.921,102.739,0,0.000885,0,0
0:6:57.550,811.907,103.373,0,0.000885,0,0
0:7:0.338,817.307,104.063,0,0.000885,0,0
0:7:3.141,822.356,104.704,0,0.000885,0,0
0:7:5.934,828.286,105.462,0,0.000885,0,0
0:7:8.738,833.921,106.179,0,0.000885,0,0
0:7:11.519,839.322,106.869,0,0.000885,0,0
0:7:14.321,844.664,107.544,0,0.000885,0,0
0:7:17.134,850.358,108.268,0,0.000885,0,0
0:7:19.935,855.758,108.958,0,0.000885,0,0
0:7:22.753,861.274,109.661,0,0.000885,0,0
0:7:25.531,866.736,110.357,0,0.000885,0,0
0:7:28.335,872.074,111.033,0,0.000885,0,0
0:7:31.115,877.71,111.75,0,0.000885,0,0
0:7:33.927,883.524,112.495,0,0.000885,0,0
0:7:36.741,888.63,113.143,0,0.000885,0,0
0:7:39.533,894.675,113.915,0,0.000885,0,0
0:7:42.351,899.666,114.549,0,0.000885,0,0
0:7:45.137,905.418,115.28,0,0.000885,0,0
0:7:47.944,910.346,115.908,0,0.000885,0,0
0:7:50.742,916.218,116.659,0,0.000885,0,0
0:7:53.552,921.618,117.342,0,0.000885,0,0
0:7:56.340,926.903,118.018,0,0.000885,0,0
0:7:59.141,932.77,118.762,0,0.000885,0,0
0:8:1.933,938.521,119.493,0,0.000885,0,0
0:8:4.733,943.922,120.183,0,0.000885,0,0
0:8:7.533,948.797,120.803,0,0.000885,0,0
0:8:10.319,954.548,121.534,0,0.000885,0,0
0:8:13.119,960.42,122.285,0,0.000885,0,0
0:8:15.905,965.527,122.934,0,0.000885,0,0
0:8:18.704,971.158,123.651,0,0.000885,0,0
0:8:21.486,976.678,124.354,0,0.000885,0,0
0:8:24.289,982.021,125.036,0,0.000885,0,0
0:8:27.089,987.536,125.74,0,0.000885,0,0
0:8:29.874,992.701,126.395,0,0.000885,0,0
0:8:32.678,998.572,127.139,0,0.000885,0,0
0:8:35.462,1003.97,127.829,0,0.000885,0,0
0:8:38.262,1009.61,128.546,0,0.000885,0,0
0:8:41.048,1015.24,129.263,0,0.000885,0,0
0:8:43.848,1020.17,129.89,0,0.000885,0,0
0:8:46.635,1025.69,130.594,0,0.000885,0,0
0:8:49.444,1031.62,131.352,0,0.000885,0,0
0:8:52.236,1036.79,132.007,0,0.000885,0,0
0:8:55.028,1042.95,132.793,0,0.000885,0,0
0:8:57.837,1047.88,133.42,0,0.000885,0,0
0:9:0.630,1053.87,134.186,0,0.000885,0,0
0:9:3.431,1058.62,134.786,0,0.000885,0,0
0:9:6.238,1064.55,135.544,0,0.000885,0,0
0:9:9.044,1070.42,136.289,0,0.000885,0,0
0:9:11.854,1075.76,136.971,0,0.000885,0,0
0:9:14.647,1081.51,137.702,0,0.000885,0,0
0:9:17.452,1086.56,138.343,0,0.000885,0,0
0:9:20.241,1092.02,139.04,0,0.000885,0,0
0:9:23.052,1097.6,139.75,0,0.000885,0,0
0:9:25.839,1099.77,140.026,0,0.000885,0,0
0:9:28.640,1110.86,141.439,0,0.000885,0,0
0:9:31.430,1113.98,141.839,0,0.000885,0,0
0:9:34.251,1118.96,142.473,0,0.000885,0,0
0:9:37.051,1125.19,143.266,0,0.000885,0,0
0:9:39.846,1130.53,143.942,0,0.000885,0,0
0:9:42.664,1135.99,144.638,0,0.000885,0,0
0:9:45.451,1141.97,145.404,0,0.000885,0,0
0:9:48.259,1147.32,146.079,0,0.000885,0,0
0:9:51.053,1152.25,146.707,0,0.000885,0,0
0:9:53.859,1157.88,147.424,0,0.000885,0,0
0:9:56.654,1163.52,148.141,0,0.000885,0,0
0:9:59.452,1168.86,148.823,0,0.000885,0,0
0:10:2.262,1174.5,149.54,0,0.000885,0,0
0:10:5.053,1180.78,150.34,0,0.000885,0,0
0:10:7.864,1185.47,150.94,0,0.000885,0,0
0:10:10.640,1190.64,151.595,0,0.000885,0,0
0:10:13.467,1196.8,152.381,0,0.000885,0,0
0:10:16.252,1202.03,153.05,0,0.000885,0,0
0:10:19.061,1207.78,153.781,0,0.000885,0,0
0:10:21.870,1212.53,154.387,0,0.000885,0,0
0:10:24.660,1218.4,155.132,0,0.000885,0,0
0:10:27.469,1223.8,155.822,0,0.000885,0,0
0:10:30.261,1229.14,156.497,0,0.000885,0,0
0:10:33.063,1235.19,157.269,0,0.000885,0,0
0:10:35.860,1240.59,157.959,0,0.000885,0,0
0:10:38.665,1246.46,158.704,0,0.000885,0,0
0:10:41.455,1251.16,159.303,0,0.000885,0,0
0:10:44.254,1257.26,160.082,0,0.000885,0,0
0:10:47.065,1262.31,160.724,0,0.000885,0,0
0:10:49.853,1268,161.448,0,0.000885,0,0
0:10:52.670,1273.23,162.11,0,0.000885,0,0
0:10:55.462,1278.51,162.785,0,0.000885,0,0
0:10:58.264,1260.37,160.475,0,0.000885,0,0
0:10:58.303,1260.37,160.475,0,0.000885,0,0

File: DataFile2021-07-17_045403.csv
Test ID:,Date Tested:,Time:,Test Type:,Diameter Avg. (mm):,Cyl. Corr. Factor:,Height (mm):,Age (days):,Weight (kN):,Break Type:,Ramp Rate (MPa/s):,Load at Break (kN):,Stress at Break (MPa):
12,7/17/2021,04:54,Cylinder,100,1,200,0,3.6,Invalid/No Break,0.23,15.31,1.95
Sample Time,Load (kN),Stress (MPa),Long. Strain,Trans. Strain,Chan1 Deflection (mm),Chan2 Deflection (mm)
0:0:12.795,5.04428,0.641212,0,0.000885,0,0
0:0:12.892,5.98286,0.758423,0,0.000885,0,0
0:0:12.991,6.33427,0.806687,0,0.000885,0,0
0:0:13.090,6.33427,0.806687,0,0.000885,0,0
0:0:13.192,6.57002,0.834266,0,0.000885,0,0
0:0:13.291,7.15719,0.910108,0,0.000885,0,0
0:0:13.388,7.15719,0.910108,0,0.000885,0,0
0:0:13.487,8.09576,1.02732,0,0.000885,0,0
0:0:13.587,8.32707,1.06179,0,0.000885,0,0
0:0:13.688,8.85641,1.13074,0,0.000885,0,0
0:0:13.789,8.85641,1.13074,0,0.000885,0,0
0:0:13.886,8.85641,1.13074,0,0.000885,0,0
0:0:13.984,8.67848,1.10316,0,0.000885,0,0
0:0:14.085,8.56283,1.08937,0,0.000885,0,0
0:0:14.186,8.56283,1.08937,0,0.000885,0,0
0:0:14.285,8.56283,1.08937,0,0.000885,0,0
0:0:14.382,8.85641,1.13074,0,0.000885,0,0
0:0:14.480,8.67848,1.10316,0,0.000885,0,0
0:0:14.580,8.67848,1.10316,0,0.000885,0,0
0:0:14.681,8.67848,1.10316,0,0.000885,0,0
0:0:14.781,8.97206,1.14453,0,0.000885,0,0
0:0:14.880,8.97206,1.14453,0,0.000885,0,0
0:0:14.977,8.97206,1.14453,0,0.000885,0,0
0:0:15.078,8.79858,1.11695,0,0.000885,0,0
0:0:15.179,8.97206,1.14453,0,0.000885,0,0
0:0:15.277,8.97206,1.14453,0,0.000885,0,0
0:0:15.375,9.5014,1.20658,0,0.000885,0,0
0:0:15.473,10.44,1.33069,0,0.000885,0,0
0:0:15.574,10.2042,1.29621,0,0.000885,0,0
0:0:15.675,10.2042,1.29621,0,0.000885,0,0
0:0:15.774,10.262,1.31,0,0.000885,0,0
0:0:15.873,10.7336,1.36516,0,0.000885,0,0
0:0:15.971,11.1428,1.42032,0,0.000885,0,0
0:0:16.071,11.1428,1.42032,0,0.000885,0,0
0:0:16.172,10.9693,1.39964,0,0.000885,0,0
0:0:16.272,11.9079,1.51685,0,0.000885,0,0
0:0:16.369,11.9079,1.51685,0,0.000885,0,0
0:0:16.467,11.3207,1.441,0,0.000885,0,0
0:0:16.567,11.9657,1.52374,0,0.000885,0,0
0:0:16.669,12.0814,1.53753,0,0.000885,0,0
0:0:16.768,12.0814,1.53753,0,0.000885,0,0
0:0:16.866,12.5529,1.59958,0,0.000885,0,0
0:0:16.964,12.9043,1.64095,0,0.000885,0,0
0:0:17.064,12.7264,1.62027,0,0.000885,0,0
0:0:17.165,12.7264,1.62027,0,0.000885,0,0
0:0:17.264,13.3135,1.69611,0,0.000885,0,0
0:0:17.363,14.0163,1.78574,0,0.000885,0,0
0:0:17.460,14.0163,1.78574,0,0.000885,0,0
0:0:17.560,14.0163,1.78574,0,0.000885,0,0
0:0:17.661,14.1943,1.80643,0,0.000885,0,0
0:0:17.762,14.0742,1.79264,0,0.000885,0,0
0:0:17.860,14.0742,1.79264,0,0.000885,0,0
0:0:17.958,14.0742,1.79264,0,0.000885,0,0
0:0:18.058,14.5457,1.85469,0,0.000885,0,0
0:0:18.159,15.0127,1.90985,0,0.000885,0,0
0:0:18.260,15.0127,1.90985,0,0.000885,0,0
0:0:18.361,15.3063,1.95122,0,0.000885,0,0
0:0:18.461,15.72,1.99948,0,0.000885,0,0
0:0:18.520,15.72,1.99948,0,0.000885,0,0