Folder: Experiment-Files (part 95)

File: DataFile2021-07-28_102449.csv
Test ID:,Date Tested:,Time:,Test Type:,Diameter Avg. (mm):,Cyl. Corr. Factor:,Height (mm):,Age (days):,Weight (kN):,Break Type:,Ramp Rate (MPa/s):,Load at Break (kN):,Stress at Break (MPa):
12,7/28/2021,10:24,Cylinder,100,1,200,0,13.69,3,0.35,1160.76,147.79
Sample Time,Load (kN),Stress (MPa),Long. Strain,Trans. Strain,Chan1 Deflection (mm),Chan2 Deflection (mm)
0:0:12.795,5.80493,0.737739,0,0.000885,0,0
0:0:14.585,10.1464,1.28932,0,0.000885,0,0
0:0:16.380,14.8393,1.88916,0,0.000885,0,0
0:0:18.180,19.3542,2.46143,0,0.000885,0,0
0:0:19.994,23.9893,3.05438,0,0.000885,0,0
0:0:21.789,29.7942,3.79212,0,0.000885,0,0
0:0:23.583,35.3055,4.49538,0,0.000885,0,0
0:0:25.397,41.0571,5.22623,0,0.000885,0,0
0:0:27.189,45.5142,5.7916,0,0.000885,0,0
0:0:28.997,49.8512,6.35007,0,0.000885,0,0
0:0:30.795,54.6642,6.95681,0,0.000885,0,0
0:0:32.589,59.8241,7.61871,0,0.000885,0,0
0:0:34.401,65.162,8.29439,0,0.000885,0,0
0:0:36.196,69.9127,8.90113,0,0.000885,0,0
0:0:37.984,74.7791,9.52166,0,0.000885,0,0
0:0:39.801,79.8812,10.1698,0,0.000885,0,0
0:0:41.591,84.8676,10.8041,0,0.000885,0,0
0:0:43.393,88.7376,11.3005,0,0.000885,0,0
0:0:45.197,94.7783,12.0658,0,0.000885,0,0
0:0:46.991,100.232,12.7622,0,0.000885,0,0
0:0:48.793,103.577,13.1897,0,0.000885,0,0
0:0:50.596,109.266,13.9136,0,0.000885,0,0
0:0:52.384,114.777,14.6169,0,0.000885,0,0
0:0:54.193,118.768,15.1202,0,0.000885,0,0
0:0:55.986,123.985,15.789,0,0.000885,0,0
0:0:57.787,129.03,16.4302,0,0.000885,0,0
0:0:59.596,133.78,17.0369,0,0.000885,0,0
0:1:1.390,138.651,17.6506,0,0.000885,0,0
0:1:3.183,143.344,18.2504,0,0.000885,0,0
0:1:4.995,148.562,18.9123,0,0.000885,0,0
0:1:6.783,153.779,19.5811,0,0.000885,0,0
0:1:8.594,158.592,20.1947,0,0.000885,0,0
0:1:10.398,164.104,20.8911,0,0.000885,0,0
0:1:12.189,168.445,21.4496,0,0.000885,0,0
0:1:13.994,173.427,22.0839,0,0.000885,0,0
0:1:15.797,178.592,22.7389,0,0.000885,0,0
0:1:17.586,183.809,23.4008,0,0.000885,0,0
0:1:19.403,188.209,23.9662,0,0.000885,0,0
0:1:21.192,193.489,24.635,0,0.000885,0,0
0:1:22.980,198.119,25.2279,0,0.000885,0,0
0:1:24.783,203.164,25.8691,0,0.000885,0,0
0:1:26.581,208.092,26.4966,0,0.000885,0,0
0:1:28.383,213.31,27.1584,0,0.000885,0,0
0:1:30.190,217.594,27.7031,0,0.000885,0,0
0:1:31.988,222.696,28.3512,0,0.000885,0,0
0:1:33.795,227.918,29.02,0,0.000885,0,0
0:1:35.587,233.078,29.675,0,0.000885,0,0
0:1:37.386,237.771,30.2749,0,0.000885,0,0
0:1:39.196,242.931,30.9299,0,0.000885,0,0
0:1:40.990,248.091,31.5849,0,0.000885,0,0
0:1:42.788,252.606,32.164,0,0.000885,0,0
0:1:44.588,258.179,32.8742,0,0.000885,0,0
0:1:46.387,262.227,33.3844,0,0.000885,0,0
0:1:48.186,267.796,34.0946,0,0.000885,0,0
0:1:49.987,272.783,34.7289,0,0.000885,0,0
0:1:51.773,277.298,35.3081,0,0.000885,0,0
0:1:53.587,282.693,35.9906,0,0.000885,0,0
0:1:55.385,287.155,36.5629,0,0.000885,0,0
0:1:57.192,291.728,37.1421,0,0.000885,0,0
0:1:58.991,297.123,37.8315,0,0.000885,0,0
0:2:0.780,302.168,38.4727,0,0.000885,0,0
0:2:2.584,307.506,39.1553,0,0.000885,0,0
0:2:4.390,312.43,39.7827,0,0.000885,0,0
0:2:6.178,316.829,40.3412,0,0.000885,0,0
0:2:7.987,321.993,40.9962,0,0.000885,0,0
0:2:9.791,326.802,41.6099,0,0.000885,0,0
0:2:11.590,332.313,42.3131,0,0.000885,0,0
0:2:13.390,336.828,42.8854,0,0.000885,0,0
0:2:15.188,341.521,43.4852,0,0.000885,0,0
0:2:16.985,346.681,44.1402,0,0.000885,0,0
0:2:18.791,351.494,44.7539,0,0.000885,0,0
0:2:20.592,356.182,45.3537,0,0.000885,0,0
0:2:22.390,361.111,45.9811,0,0.000885,0,0
0:2:24.197,365.804,46.5741,0,0.000885,0,0
0:2:25.988,371.729,47.3325,0,0.000885,0,0
0:2:27.783,376.186,47.8979,0,0.000885,0,0
0:2:29.588,381.582,48.5874,0,0.000885,0,0
0:2:31.383,385.981,49.1458,0,0.000885,0,0
0:2:33.193,391.728,49.8767,0,0.000885,0,0
0:2:34.996,396.007,50.4214,0,0.000885,0,0
0:2:36.782,401.109,51.0695,0,0.000885,0,0
0:2:38.595,406.154,51.7107,0,0.000885,0,0
0:2:40.393,410.962,52.3243,0,0.000885,0,0
0:2:42.181,415.833,52.9448,0,0.000885,0,0
0:2:43.995,421.465,53.6619,0,0.000885,0,0
0:2:45.778,426.037,54.248,0,0.000885,0,0
0:2:47.586,430.904,54.8616,0,0.000885,0,0
0:2:49.398,435.774,55.4821,0,0.000885,0,0
0:2:51.189,440.877,56.1371,0,0.000885,0,0
0:2:52.984,445.392,56.7094,0,0.000885,0,0
0:2:54.799,450.494,57.3575,0,0.000885,0,0
0:2:56.596,455.364,57.978,0,0.000885,0,0
0:2:58.390,460.467,58.6261,0,0.000885,0,0
0:3:0.182,465.275,59.2398,0,0.000885,0,0
0:3:1.981,470.786,59.943,0,0.000885,0,0
0:3:3.804,475.07,60.4877,0,0.000885,0,0
0:3:5.592,479.879,61.1013,0,0.000885,0,0
0:3:7.392,485.804,61.8529,0,0.000885,0,0
0:3:9.205,490.728,62.4803,0,0.000885,0,0
0:3:10.998,494.776,62.9974,0,0.000885,0,0
0:3:12.795,500.581,63.7351,0,0.000885,0,0
0:3:14.598,505.451,64.3557,0,0.000885,0,0
0:3:16.394,509.379,64.859,0,0.000885,0,0
0:3:18.199,515.068,65.5829,0,0.000885,0,0
0:3:19.998,520.464,66.2655,0,0.000885,0,0
0:3:21.795,524.512,66.7826,0,0.000885,0,0
0:3:23.602,530.023,67.4859,0,0.000885,0,0
0:3:25.396,534.307,68.0306,0,0.000885,0,0
0:3:27.199,539.409,68.6787,0,0.000885,0,0
0:3:29.001,544.044,69.2716,0,0.000885,0,0
0:3:30.789,549.907,70.0163,0,0.000885,0,0
0:3:32.589,554.191,70.5609,0,0.000885,0,0
0:3:34.391,558.999,71.1746,0,0.000885,0,0
0:3:36.183,564.453,71.8709,0,0.000885,0,0
0:3:38.000,569.025,72.4501,0,0.000885,0,0
0:3:39.805,573.896,73.0706,0,0.000885,0,0
0:3:41.590,579.879,73.8291,0,0.000885,0,0
0:3:43.390,584.043,74.36,0,0.000885,0,0
0:3:45.191,589.265,75.0287,0,0.000885,0,0
0:3:46.995,593.664,75.5872,0,0.000885,0,0
0:3:48.808,598.949,76.2629,0,0.000885,0,0
0:3:50.602,603.41,76.8283,0,0.000885,0,0
0:3:52.385,608.223,77.4419,0,0.000885,0,0
0:3:54.198,614.268,78.2141,0,0.000885,0,0
0:3:55.998,619.375,78.8622,0,0.000885,0,0
0:3:57.791,623.427,79.3793,0,0.000885,0,0
0:3:59.606,628.943,80.0826,0,0.000885,0,0
0:4:1.390,633.756,80.6893,0,0.000885,0,0
0:4:3.190,638.511,81.2961,0,0.000885,0,0
0:4:5.000,643.502,81.9304,0,0.000885,0,0
0:4:6.788,648.782,82.6061,0,0.000885,0,0
0:4:8.604,653.244,83.1715,0,0.000885,0,0
0:4:10.407,658.292,83.8196,0,0.000885,0,0
0:4:12.194,663.457,84.4746,0,0.000885,0,0
0:4:14.006,667.918,85.0399,0,0.000885,0,0
0:4:15.803,672.851,85.6674,0,0.000885,0,0
0:4:17.595,678.131,86.343,0,0.000885,0,0
0:4:19.402,683.416,87.0118,0,0.000885,0,0
0:4:21.191,687.584,87.5427,0,0.000885,0,0
0:4:22.992,693.042,88.2391,0,0.000885,0,0
0:4:24.802,697.681,88.8321,0,0.000885,0,0
0:4:26.590,702.846,89.4871,0,0.000885,0,0
0:4:28.404,707.774,90.1145,0,0.000885,0,0
0:4:30.210,712.885,90.7695,0,0.000885,0,0
0:4:31.993,717.578,91.3624,0,0.000885,0,0
0:4:33.803,722.16,91.9485,0,0.000885,0,0
0:4:35.605,727.854,92.6724,0,0.000885,0,0
0:4:37.400,732.667,93.2861,0,0.000885,0,0
0:4:39.209,737.422,93.8928,0,0.000885,0,0
0:4:40.998,742.466,94.534,0,0.000885,0,0
0:4:42.798,747.635,95.189,0,0.000885,0,0
0:4:44.609,752.506,95.8095,0,0.000885,0,0
0:4:46.401,757.434,96.437,0,0.000885,0,0
0:4:48.194,762.189,97.0437,0,0.000885,0,0
0:4:50.009,767.18,97.678,0,0.000885,0,0
0:4:51.802,772.345,98.3399,0,0.000885,0,0
0:4:53.610,776.513,98.8708,0,0.000885,0,0
0:4:55.408,782.384,99.6155,0,0.000885,0,0
0:4:57.206,786.846,100.181,0,0.000885,0,0
0:4:59.010,792.01,100.843,0,0.000885,0,0
0:5:0.804,796.939,101.47,0,0.000885,0,0
0:5:2.596,801.285,102.022,0,0.000885,0,0
0:5:4.413,806.921,102.739,0,0.000885,0,0
0:5:6.204,812.085,103.401,0,0.000885,0,0
0:5:7.998,816.311,103.938,0,0.000885,0,0
0:5:9.809,821.653,104.614,0,0.000885,0,0
0:5:11.608,826.23,105.2,0,0.000885,0,0
0:5:13.413,831.043,105.814,0,0.000885,0,0
0:5:15.217,836.27,106.476,0,0.000885,0,0
0:5:17.001,841.257,107.11,0,0.000885,0,0
0:5:18.813,846.483,107.779,0,0.000885,0,0
0:5:20.610,851.763,108.448,0,0.000885,0,0
0:5:22.398,856.754,109.089,0,0.000885,0,0
0:5:24.200,861.1,109.64,0,0.000885,0,0
0:5:26.005,865.913,110.254,0,0.000885,0,0
0:5:27.797,871.193,110.923,0,0.000885,0,0
0:5:29.609,876.184,111.557,0,0.000885,0,0
0:5:31.392,880.939,112.164,0,0.000885,0,0
0:5:33.185,885.988,112.805,0,0.000885,0,0
0:5:34.991,891.33,113.488,0,0.000885,0,0
0:5:36.780,895.498,114.019,0,0.000885,0,0
0:5:38.571,900.72,114.68,0,0.000885,0,0
0:5:40.377,905.591,115.301,0,0.000885,0,0
0:5:42.160,910.466,115.922,0,0.000885,0,0
0:5:43.970,915.395,116.549,0,0.000885,0,0
0:5:45.760,920.035,117.142,0,0.000885,0,0
0:5:47.552,925.608,117.852,0,0.000885,0,0
0:5:49.359,930.012,118.411,0,0.000885,0,0
0:5:51.149,935.59,119.121,0,0.000885,0,0
0:5:52.932,940.167,119.707,0,0.000885,0,0
0:5:54.744,945.038,120.327,0,0.000885,0,0
0:5:56.527,950.145,120.975,0,0.000885,0,0
0:5:58.316,955.078,121.603,0,0.000885,0,0
0:6:0.125,959.833,122.21,0,0.000885,0,0
0:6:1.916,964.877,122.851,0,0.000885,0,0
0:6:3.717,969.632,123.458,0,0.000885,0,0
0:6:5.515,975.032,124.147,0,0.000885,0,0
0:6:7.306,979.614,124.726,0,0.000885,0,0
0:6:9.123,984.721,125.381,0,0.000885,0,0
0:6:10.912,989.298,125.96,0,0.000885,0,0
0:6:12.710,994.289,126.595,0,0.000885,0,0
0:6:14.515,999.689,127.284,0,0.000885,0,0
0:6:16.300,1004.62,127.912,0,0.000885,0,0
0:6:18.099,1009.49,128.532,0,0.000885,0,0
0:6:19.902,1014.48,129.166,0,0.000885,0,0
0:6:21.704,1018.59,129.69,0,0.000885,0,0
0:6:23.502,1024.52,130.449,0,0.000885,0,0
0:6:25.298,1029.27,131.049,0,0.000885,0,0
0:6:27.107,1034.26,131.683,0,0.000885,0,0
0:6:28.908,1038.54,132.235,0,0.000885,0,0
0:6:30.714,1044.18,132.952,0,0.000885,0,0
0:6:32.514,1048.99,133.565,0,0.000885,0,0
0:6:34.330,1053.51,134.138,0,0.000885,0,0
0:6:36.122,1059.27,134.868,0,0.000885,0,0
0:6:37.904,1064.37,135.523,0,0.000885,0,0
0:6:39.717,1068.42,136.034,0,0.000885,0,0
0:6:41.501,1074.12,136.758,0,0.000885,0,0
0:6:43.308,1078.64,137.337,0,0.000885,0,0
0:6:45.117,1083.45,137.95,0,0.000885,0,0
0:6:46.906,1088.5,138.592,0,0.000885,0,0
0:6:48.709,1093.02,139.171,0,0.000885,0,0
0:6:50.516,1098.48,139.86,0,0.000885,0,0
0:6:52.300,1103.41,140.488,0,0.000885,0,0
0:6:54.108,1108.75,141.17,0,0.000885,0,0
0:6:55.909,1113.45,141.77,0,0.000885,0,0
0:6:57.704,1118.38,142.397,0,0.000885,0,0
0:6:59.518,1123.6,143.059,0,0.000885,0,0
0:7:1.309,1127.59,143.57,0,0.000885,0,0
0:7:3.119,1133.4,144.307,0,0.000885,0,0
0:7:4.929,1138.04,144.9,0,0.000885,0,0
0:7:6.718,1142.97,145.528,0,0.000885,0,0
0:7:8.508,1147.55,146.114,0,0.000885,0,0
0:7:10.318,1153.3,146.845,0,0.000885,0,0
0:7:12.108,1158.35,147.486,0,0.000885,0,0
0:7:13.917,1084.1,138.033,0,0.000885,0,0
0:7:15.711,997.514,127.008,0,0.000885,0,0
0:7:17.518,990.824,126.153,0,0.000885,0,0
0:7:19.325,988.181,125.822,0,0.000885,0,0
0:7:21.105,987.536,125.74,0,0.000885,0,0
0:7:22.888,843.432,107.386,0,0.000885,0,0
0:7:23.828,825.408,105.097,0,0.000885,0,0

File: DataFile2021-07-28_103546.csv
Test ID:,Date Tested:,Time:,Test Type:,Diameter Avg. (mm):,Cyl. Corr. Factor:,Height (mm):,Age (days):,Weight (kN):,Break Type:,Ramp Rate (MPa/s):,Load at Break (kN):,Stress at Break (MPa):
12,7/28/2021,10:35,Cylinder,100,1,200,0,13.69,3,0.35,1264.13,160.95
Sample Time,Load (kN),Stress (MPa),Long. Strain,Trans. Strain,Chan1 Deflection (mm),Chan2 Deflection (mm)
0:0:14.351,5.04428,0.641212,0,0.000885,0,0
0:0:16.337,11.4942,1.46169,0,0.000885,0,0
0:0:18.318,14.7814,1.88227,0,0.000885,0,0
0:0:20.326,21.4093,2.72343,0,0.000885,0,0
0:0:22.326,26.9785,3.43359,0,0.000885,0,0
0:0:24.318,32.8457,4.18512,0,0.000885,0,0
0:0:26.336,38.357,4.88149,0,0.000885,0,0
0:0:28.327,43.0499,5.48133,0,0.000885,0,0
0:0:30.328,49.3842,6.28802,0,0.000885,0,0
0:0:32.332,54.3083,6.91544,0,0.000885,0,0
0:0:34.325,59.5305,7.57734,0,0.000885,0,0
0:0:36.340,66.2741,8.43918,0,0.000885,0,0
0:0:38.329,71.1449,9.05971,0,0.000885,0,0
0:0:40.337,76.4783,9.7354,0,0.000885,0,0
0:0:42.336,82.2877,10.48,0,0.000885,0,0
0:0:44.328,87.8568,11.1833,0,0.000885,0,0
0:0:46.346,93.4883,11.9004,0,0.000885,0,0
0:0:48.334,98.0032,12.4795,0,0.000885,0,0
0:0:50.336,104.106,13.2517,0,0.000885,0,0
0:0:52.338,109.675,13.9619,0,0.000885,0,0
0:0:54.328,115.191,14.6651,0,0.000885,0,0
0:0:56.343,120.409,15.3339,0,0.000885,0,0
0:0:58.335,125.747,16.0096,0,0.000885,0,0
0:1:0.343,131.494,16.7405,0,0.000885,0,0
0:1:2.346,137.125,17.4575,0,0.000885,0,0
0:1:4.339,142.815,18.1815,0,0.000885,0,0
0:1:6.354,147.387,18.7675,0,0.000885,0,0
0:1:8.346,153.019,19.4846,0,0.000885,0,0
0:1:10.345,159.18,20.2637,0,0.000885,0,0
0:1:12.353,164.513,20.9463,0,0.000885,0,0
0:1:14.342,170.265,21.6771,0,0.000885,0,0
0:1:16.368,175.834,22.3873,0,0.000885,0,0
0:1:18.377,180.642,23.0009,0,0.000885,0,0
0:1:20.388,186.861,23.7938,0,0.000885,0,0
0:1:22.390,192.079,24.4557,0,0.000885,0,0
0:1:24.367,197.652,25.1659,0,0.000885,0,0
0:1:26.368,203.515,25.9105,0,0.000885,0,0
0:1:28.376,208.795,26.5862,0,0.000885,0,0
0:1:30.379,214.191,27.2688,0,0.000885,0,0
0:1:32.385,219.88,27.9927,0,0.000885,0,0
0:1:34.390,225.454,28.7029,0,0.000885,0,0
0:1:36.401,230.965,29.4061,0,0.000885,0,0
0:1:38.376,235.6,29.9991,0,0.000885,0,0
0:1:40.370,241.814,30.792,0,0.000885,0,0
0:1:42.381,246.921,31.4401,0,0.000885,0,0
0:1:44.358,252.726,32.1778,0,0.000885,0,0
0:1:46.378,258.237,32.8811,0,0.000885,0,0
0:1:48.375,263.517,33.5499,0,0.000885,0,0
0:1:50.400,269.322,34.2945,0,0.000885,0,0
0:1:52.391,274.486,34.9495,0,0.000885,0,0
0:1:54.389,280.056,35.6597,0,0.000885,0,0
0:1:56.389,285.687,36.3767,0,0.000885,0,0
0:1:58.382,291.141,37.0662,0,0.000885,0,0
0:2:0.393,296.656,37.7695,0,0.000885,0,0
0:2:2.382,302.283,38.4865,0,0.000885,0,0
0:2:4.384,306.861,39.0726,0,0.000885,0,0
0:2:6.389,313.137,39.8724,0,0.000885,0,0
0:2:8.393,318.706,40.5756,0,0.000885,0,0
0:2:10.389,324.395,41.3065,0,0.000885,0,0
0:2:12.376,329.382,41.9408,0,0.000885,0,0
0:2:14.354,334.835,42.6303,0,0.000885,0,0
0:2:16.356,340.115,43.306,0,0.000885,0,0
0:2:18.336,346.743,44.1471,0,0.000885,0,0
0:2:20.323,351.61,44.7677,0,0.000885,0,0
0:2:22.314,356.418,45.3813,0,0.000885,0,0
0:2:24.290,362.05,46.0983,0,0.000885,0,0
0:2:26.299,367.739,46.8223,0,0.000885,0,0
0:2:28.280,373.25,47.5256,0,0.000885,0,0
0:2:30.284,378.997,48.2564,0,0.000885,0,0
0:2:32.267,383.926,48.8838,0,0.000885,0,0
0:2:34.246,389.673,49.6147,0,0.000885,0,0
0:2:36.249,395.362,50.3386,0,0.000885,0,0
0:2:38.227,400.816,51.035,0,0.000885,0,0
0:2:40.212,405.98,51.69,0,0.000885,0,0
0:2:42.202,411.549,52.4002,0,0.000885,0,0
0:2:44.186,417.181,53.1172,0,0.000885,0,0
0:2:46.196,422.577,53.8067,0,0.000885,0,0
0:2:48.174,427.857,54.4755,0,0.000885,0,0
0:2:50.166,433.252,55.165,0,0.000885,0,0
0:2:52.156,439.057,55.9027,0,0.000885,0,0
0:2:54.130,443.924,56.5232,0,0.000885,0,0
0:2:56.130,449.733,57.261,0,0.000885,0,0
0:2:58.105,455.302,57.9711,0,0.000885,0,0
0:3:0.097,460.876,58.6813,0,0.000885,0,0
0:3:2.090,466.387,59.3845,0,0.000885,0,0
0:3:4.089,471.552,60.0395,0,0.000885,0,0
0:3:6.090,477.592,60.8118,0,0.000885,0,0
0:3:8.099,482.81,61.4737,0,0.000885,0,0
0:3:10.091,487.681,62.0942,0,0.000885,0,0
0:3:12.090,493.544,62.8388,0,0.000885,0,0
0:3:14.093,499.411,63.5835,0,0.000885,0,0
0:3:16.097,505.1,64.3143,0,0.000885,0,0
0:3:18.079,509.788,64.9072,0,0.000885,0,0
0:3:20.072,515.184,65.5967,0,0.000885,0,0
0:3:22.061,521.345,66.3827,0,0.000885,0,0
0:3:24.040,526.741,67.0653,0,0.000885,0,0
0:3:26.042,532.31,67.7755,0,0.000885,0,0
0:3:28.027,537.181,68.396,0,0.000885,0,0
0:3:30.020,542.634,69.0924,0,0.000885,0,0
0:3:32.003,548.266,69.8094,0,0.000885,0,0
0:3:33.987,553.835,70.5196,0,0.000885,0,0
0:3:35.989,559.351,71.2159,0,0.000885,0,0
0:3:37.976,564.453,71.8709,0,0.000885,0,0
0:3:39.961,570.378,72.6225,0,0.000885,0,0
0:3:41.952,575.889,73.3257,0,0.000885,0,0
0:3:43.925,581.227,74.0014,0,0.000885,0,0
0:3:45.928,586.271,74.6495,0,0.000885,0,0
0:3:47.910,592.196,75.4011,0,0.000885,0,0
0:3:49.910,597.481,76.0768,0,0.000885,0,0
0:3:51.907,602.881,76.7593,0,0.000885,0,0
0:3:53.903,607.987,77.4143,0,0.000885,0,0
0:3:55.915,614.153,78.1934,0,0.000885,0,0
0:3:57.901,619.668,78.8967,0,0.000885,0,0
0:3:59.900,625.011,79.5793,0,0.000885,0,0
0:4:1.902,630.469,80.2757,0,0.000885,0,0
0:4:3.894,636.162,80.9996,0,0.000885,0,0
0:4:5.904,641.563,81.6891,0,0.000885,0,0
0:4:7.889,647.083,82.3923,0,0.000885,0,0
0:4:9.888,652.425,83.068,0,0.000885,0,0
0:4:11.895,657.763,83.7506,0,0.000885,0,0
0:4:13.882,663.577,84.4884,0,0.000885,0,0
0:4:15.891,669.035,85.1847,0,0.000885,0,0
0:4:17.884,674.261,85.8466,0,0.000885,0,0
0:4:19.888,679.835,86.5568,0,0.000885,0,0
0:4:21.890,685.177,87.2394,0,0.000885,0,0
0:4:23.885,691.343,88.0254,0,0.000885,0,0
0:4:25.897,696.329,88.6597,0,0.000885,0,0
0:4:27.884,702.494,89.4457,0,0.000885,0,0
0:4:29.880,707.365,90.0662,0,0.000885,0,0
0:4:31.881,712.529,90.7212,0,0.000885,0,0
0:4:33.867,717.992,91.4176,0,0.000885,0,0
0:4:35.877,724.211,92.2105,0,0.000885,0,0
0:4:37.859,729.201,92.8448,0,0.000885,0,0
0:4:39.864,734.895,93.5688,0,0.000885,0,0
0:4:41.858,739.766,94.1893,0,0.000885,0,0
0:4:43.846,745.753,94.9546,0,0.000885,0,0
0:4:45.856,751.331,95.6648,0,0.000885,0,0
0:4:47.843,757.025,96.3887,0,0.000885,0,0
0:4:49.839,762.074,97.0299,0,0.000885,0,0
0:4:51.841,768.235,97.8159,0,0.000885,0,0
0:4:53.824,773.519,98.4847,0,0.000885,0,0
0:4:55.837,778.919,99.1742,0,0.000885,0,0
0:4:57.820,784.204,99.8499,0,0.000885,0,0
0:4:59.815,789.777,100.56,0,0.000885,0,0
0:5:1.815,795.355,101.27,0,0.000885,0,0
0:5:3.810,800.578,101.932,0,0.000885,0,0
0:5:5.821,806.507,102.691,0,0.000885,0,0
0:5:7.808,811.792,103.359,0,0.000885,0,0
0:5:9.816,817.37,104.069,0,0.000885,0,0
0:5:11.816,823.001,104.787,0,0.000885,0,0
0:5:13.811,828.286,105.462,0,0.000885,0,0
0:5:15.821,833.806,106.165,0,0.000885,0,0
0:5:17.815,839.379,106.876,0,0.000885,0,0
0:5:19.825,845.073,107.6,0,0.000885,0,0
0:5:21.816,850.531,108.296,0,0.000885,0,0
0:5:23.813,855.931,108.979,0,0.000885,0,0
0:5:25.824,861.394,109.675,0,0.000885,0,0
0:5:27.812,866.38,110.309,0,0.000885,0,0
0:5:29.818,872.31,111.068,0,0.000885,0,0
0:5:31.819,877.474,111.723,0,0.000885,0,0
0:5:33.812,883.11,112.44,0,0.000885,0,0
0:5:35.822,888.568,113.136,0,0.000885,0,0
0:5:37.815,894.44,113.881,0,0.000885,0,0
0:5:39.829,899.666,114.549,0,0.000885,0,0
0:5:41.822,905.533,115.294,0,0.000885,0,0
0:5:43.818,910.818,115.97,0,0.000885,0,0
0:5:45.832,915.804,116.604,0,0.000885,0,0
0:5:47.816,921.56,117.335,0,0.000885,0,0
0:5:49.819,927.428,118.087,0,0.000885,0,0
0:5:51.820,932.712,118.755,0,0.000885,0,0
0:5:53.815,938.584,119.507,0,0.000885,0,0
0:5:55.825,943.454,120.127,0,0.000885,0,0
0:5:57.821,948.797,120.803,0,0.000885,0,0
0:5:59.824,955.078,121.603,0,0.000885,0,0
0:6:1.821,960.184,122.251,0,0.000885,0,0
0:6:3.815,965.642,122.947,0,0.000885,0,0
0:6:5.835,971.158,123.651,0,0.000885,0,0
0:6:7.819,976.678,124.354,0,0.000885,0,0
0:6:9.821,982.666,125.119,0,0.000885,0,0
0:6:11.814,987.714,125.76,0,0.000885,0,0
0:6:13.817,993.172,126.457,0,0.000885,0,0
0:6:15.829,998.63,127.146,0,0.000885,0,0
0:6:17.822,1004.15,127.849,0,0.000885,0,0
0:6:19.831,1009.78,128.567,0,0.000885,0,0
0:6:21.832,1014.71,129.201,0,0.000885,0,0
0:6:23.816,1020.7,129.959,0,0.000885,0,0
0:6:25.825,1026.1,130.649,0,0.000885,0,0
0:6:27.821,1032.09,131.407,0,0.000885,0,0
0:6:29.824,1037.49,132.097,0,0.000885,0,0
0:6:31.825,1042.19,132.696,0,0.000885,0,0
0:6:33.820,1048.23,133.462,0,0.000885,0,0
0:6:35.834,1053.93,134.193,0,0.000885,0,0
0:6:37.819,1059.44,134.889,0,0.000885,0,0
0:6:39.833,1064.9,135.585,0,0.000885,0,0
0:6:41.834,1070.18,136.261,0,0.000885,0,0
0:6:43.826,1075.53,136.944,0,0.000885,0,0
0:6:45.837,1081.51,137.702,0,0.000885,0,0
0:6:47.824,1086.8,138.378,0,0.000885,0,0
0:6:49.829,1091.85,139.019,0,0.000885,0,0
0:6:51.827,1097.95,139.798,0,0.000885,0,0
0:6:53.821,1102.94,140.432,0,0.000885,0,0
0:6:55.832,1108.93,141.191,0,0.000885,0,0
0:6:57.819,1114.09,141.853,0,0.000885,0,0
0:6:59.827,1119.49,142.535,0,0.000885,0,0
0:7:1.825,1124.84,143.218,0,0.000885,0,0
0:7:3.827,1130.94,143.997,0,0.000885,0,0
0:7:5.838,1136.57,144.714,0,0.000885,0,0
0:7:7.821,1141.56,145.348,0,0.000885,0,0
0:7:9.834,1147.14,146.059,0,0.000885,0,0
0:7:11.826,1153.25,146.838,0,0.000885,0,0
0:7:13.821,1158.41,147.493,0,0.000885,0,0
0:7:15.833,1163.93,148.196,0,0.000885,0,0
0:7:17.828,1169.45,148.899,0,0.000885,0,0
0:7:19.836,1174.61,149.554,0,0.000885,0,0
0:7:21.835,1179.95,150.237,0,0.000885,0,0
0:7:23.830,1186.06,151.016,0,0.000885,0,0
0:7:25.842,1191.46,151.698,0,0.000885,0,0
0:7:27.829,1196.56,152.353,0,0.000885,0,0
0:7:29.830,1201.55,152.988,0,0.000885,0,0
0:7:31.832,1207.89,153.794,0,0.000885,0,0
0:7:33.827,1213.76,154.539,0,0.000885,0,0
0:7:35.836,1218.58,155.153,0,0.000885,0,0
0:7:37.831,1223.92,155.835,0,0.000885,0,0
0:7:39.842,1229.32,156.525,0,0.000885,0,0
0:7:41.839,1235.31,157.283,0,0.000885,0,0
0:7:43.835,1240.82,157.986,0,0.000885,0,0
0:7:45.844,1245.64,158.6,0,0.000885,0,0
0:7:47.828,1251.97,159.407,0,0.000885,0,0
0:7:49.832,1257.26,160.082,0,0.000885,0,0
0:7:51.831,1262.37,160.731,0,0.000885,0,0
0:7:53.286,967.813,123.223,0,0.000885,0,0