Folder: Experiment-Files (part 25)

File: DataFile2021-06-08_051408.csv
Test ID:,Date Tested:,Time:,Test Type:,Diameter Avg. (mm):,Cyl. Corr. Factor:,Height (mm):,Age (days):,Weight (kN):,Break Type:,Ramp Rate (MPa/s):,Load at Break (kN):,Stress at Break (MPa):
12,6/8/2021,05:14,Cylinder,150,1,300,0,3.6,6,0.24,772.52,43.71
Sample Time,Load (kN),Stress (MPa),Long. Strain,Trans. Strain,Chan1 Deflection (mm),Chan2 Deflection (mm)
0:0:13.689,5.10211,0.28958,0,0.000885,0,0
0:0:14.481,21.1735,1.19969,0,0.000885,0,0
0:0:15.279,20.235,1.14453,0,0.000885,0,0
0:0:16.069,19.9992,1.13074,0,0.000885,0,0
0:0:16.865,20.057,1.13763,0,0.000885,0,0
0:0:17.668,22.1699,1.25485,0,0.000885,0,0
0:0:18.464,25.6307,1.4479,0,0.000885,0,0
0:0:19.270,30.2034,1.7099,0,0.000885,0,0
0:0:20.079,34.7806,1.96501,0,0.000885,0,0
0:0:20.879,37.245,2.1098,0,0.000885,0,0
0:0:21.673,40.4121,2.28906,0,0.000885,0,0
0:0:22.473,44.9849,2.54417,0,0.000885,0,0
0:0:23.266,47.9741,2.71653,0,0.000885,0,0
0:0:24.066,51.2613,2.90269,0,0.000885,0,0
0:0:24.877,55.0156,3.11643,0,0.000885,0,0
0:0:25.682,58.7076,3.32327,0,0.000885,0,0
0:0:26.478,62.5198,3.53701,0,0.000885,0,0
0:0:27.272,65.4556,3.70248,0,0.000885,0,0
0:0:28.071,68.3291,3.86796,0,0.000885,0,0
0:0:28.866,72.6661,4.10928,0,0.000885,0,0
0:0:29.677,76.4783,4.32991,0,0.000885,0,0
0:0:30.484,79.6454,4.50917,0,0.000885,0,0
0:0:31.283,82.9326,4.69533,0,0.000885,0,0
0:0:32.078,86.9805,4.92286,0,0.000885,0,0
0:0:32.875,91.3175,5.16417,0,0.000885,0,0
0:0:33.673,93.4304,5.28828,0,0.000885,0,0
0:0:34.475,97.4205,5.51581,0,0.000885,0,0
0:0:35.286,101.935,5.77091,0,0.000885,0,0
0:0:36.087,104.515,5.9157,0,0.000885,0,0
0:0:36.889,107.856,6.10186,0,0.000885,0,0
0:0:37.680,111.379,6.30181,0,0.000885,0,0
0:0:38.480,114.72,6.49486,0,0.000885,0,0
0:0:39.285,118.883,6.72928,0,0.000885,0,0
0:0:40.093,121.699,6.88786,0,0.000885,0,0
0:0:40.895,125.217,7.08781,0,0.000885,0,0
0:0:41.689,129.15,7.30844,0,0.000885,0,0
0:0:42.487,132.49,7.4946,0,0.000885,0,0
0:0:43.280,136.187,7.70834,0,0.000885,0,0
0:0:44.080,139.883,7.91518,0,0.000885,0,0
0:0:44.892,143.927,8.14271,0,0.000885,0,0
0:0:45.700,147.214,8.32887,0,0.000885,0,0
0:0:46.494,150.497,8.51503,0,0.000885,0,0
0:0:47.291,153.197,8.66671,0,0.000885,0,0
0:0:48.087,156.947,8.88045,0,0.000885,0,0
0:0:48.884,161.524,9.14245,0,0.000885,0,0
0:0:49.696,163.93,9.27345,0,0.000885,0,0
0:0:50.503,167.68,9.48719,0,0.000885,0,0
0:0:51.302,171.319,9.69403,0,0.000885,0,0
0:0:52.097,175.482,9.92845,0,0.000885,0,0
0:0:52.893,179.059,10.1353,0,0.000885,0,0
0:0:53.691,182.226,10.3146,0,0.000885,0,0
0:0:54.491,185.744,10.5145,0,0.000885,0,0
0:0:55.303,189.499,10.7213,0,0.000885,0,0
0:0:56.105,193.137,10.9282,0,0.000885,0,0
0:0:56.898,196.478,11.1212,0,0.000885,0,0
0:0:57.687,199.529,11.2936,0,0.000885,0,0
0:0:58.476,203.693,11.528,0,0.000885,0,0
0:0:59.280,207.154,11.7211,0,0.000885,0,0
0:1:0.083,210.379,11.9072,0,0.000885,0,0
0:1:0.876,214.075,12.1141,0,0.000885,0,0
0:1:1.663,217.829,12.3278,0,0.000885,0,0
0:1:2.455,220.174,12.4588,0,0.000885,0,0
0:1:3.244,223.87,12.6657,0,0.000885,0,0
0:1:4.038,227.74,12.8863,0,0.000885,0,0
0:1:4.844,231.201,13.0862,0,0.000885,0,0
0:1:5.641,234.897,13.2931,0,0.000885,0,0
0:1:6.435,238.589,13.4999,0,0.000885,0,0
0:1:7.224,242.344,13.7137,0,0.000885,0,0
0:1:8.017,245.626,13.8998,0,0.000885,0,0
0:1:8.806,248.678,14.0722,0,0.000885,0,0
0:1:9.611,252.49,14.2859,0,0.000885,0,0
0:1:10.414,256.418,14.5135,0,0.000885,0,0
0:1:11.206,259.118,14.6651,0,0.000885,0,0
0:1:11.997,262.752,14.872,0,0.000885,0,0
0:1:12.786,266.506,15.0788,0,0.000885,0,0
0:1:13.579,270.145,15.2857,0,0.000885,0,0
0:1:14.372,273.721,15.4925,0,0.000885,0,0
0:1:15.176,276.831,15.6649,0,0.000885,0,0
0:1:15.972,281.581,15.9338,0,0.000885,0,0
0:1:16.776,283.516,16.0441,0,0.000885,0,0
0:1:17.563,286.741,16.2234,0,0.000885,0,0
0:1:18.356,291.025,16.4716,0,0.000885,0,0
0:1:19.153,295.131,16.6991,0,0.000885,0,0
0:1:19.956,298.529,16.8922,0,0.000885,0,0
0:1:20.750,302.226,17.1059,0,0.000885,0,0
0:1:21.542,305.744,17.2989,0,0.000885,0,0
0:1:22.332,307.799,17.4162,0,0.000885,0,0
0:1:23.122,312.021,17.6575,0,0.000885,0,0
0:1:23.914,315.833,17.8712,0,0.000885,0,0
0:1:24.718,319.351,18.0712,0,0.000885,0,0
0:1:25.519,322.928,18.2711,0,0.000885,0,0
0:1:26.306,326.388,18.4711,0,0.000885,0,0
0:1:27.100,329.849,18.6641,0,0.000885,0,0
0:1:27.887,332.665,18.8227,0,0.000885,0,0
0:1:28.681,336.655,19.0502,0,0.000885,0,0
0:1:29.479,340.289,19.2571,0,0.000885,0,0
0:1:30.283,343.514,19.4363,0,0.000885,0,0
0:1:31.078,346.565,19.6087,0,0.000885,0,0
0:1:31.865,350.435,19.8293,0,0.000885,0,0
0:1:32.668,354.661,20.0706,0,0.000885,0,0
0:1:33.464,357.65,20.2361,0,0.000885,0,0
0:1:34.271,361.64,20.4636,0,0.000885,0,0
0:1:35.071,365.039,20.6567,0,0.000885,0,0
0:1:35.863,368.562,20.8566,0,0.000885,0,0
0:1:36.662,371.845,21.0428,0,0.000885,0,0
0:1:37.462,375.127,21.229,0,0.000885,0,0
0:1:38.262,378.472,21.4151,0,0.000885,0,0
0:1:39.064,382.814,21.6633,0,0.000885,0,0
0:1:39.872,386.742,21.884,0,0.000885,0,0
0:1:40.677,390.145,22.077,0,0.000885,0,0
0:1:41.473,393.249,22.2563,0,0.000885,0,0
0:1:42.266,397.004,22.4631,0,0.000885,0,0
0:1:43.071,400.7,22.6769,0,0.000885,0,0
0:1:43.858,403.107,22.8079,0,0.000885,0,0
0:1:44.663,406.447,23.0009,0,0.000885,0,0
0:1:45.465,410.437,23.2284,0,0.000885,0,0
0:1:46.257,414.25,23.4422,0,0.000885,0,0
0:1:47.048,417.884,23.649,0,0.000885,0,0
0:1:47.865,421.696,23.8628,0,0.000885,0,0
0:1:48.661,425.099,24.0558,0,0.000885,0,0
0:1:49.466,428.088,24.2282,0,0.000885,0,0
0:1:50.266,431.611,24.4212,0,0.000885,0,0
0:1:51.053,435.832,24.6625,0,0.000885,0,0
0:1:51.847,438.822,24.8349,0,0.000885,0,0
0:1:52.634,442.282,25.028,0,0.000885,0,0
0:1:53.428,446.446,25.2624,0,0.000885,0,0
0:1:54.227,449.439,25.4348,0,0.000885,0,0
0:1:55.029,453.074,25.6416,0,0.000885,0,0
0:1:55.825,456.361,25.8278,0,0.000885,0,0
0:1:56.615,460.346,26.0484,0,0.000885,0,0
0:1:57.409,463.514,26.2277,0,0.000885,0,0
0:1:58.195,466.271,26.3862,0,0.000885,0,0
0:1:58.988,470.319,26.6138,0,0.000885,0,0
0:1:59.796,474.131,26.8275,0,0.000885,0,0
0:2:0.597,477.824,27.0412,0,0.000885,0,0
0:2:1.386,481.226,27.2343,0,0.000885,0,0
0:2:2.176,484.629,27.4273,0,0.000885,0,0
0:2:2.977,488.619,27.648,0,0.000885,0,0
0:2:3.772,492.605,27.8755,0,0.000885,0,0
0:2:4.577,495.599,28.0479,0,0.000885,0,0
0:2:5.369,498.646,28.2202,0,0.000885,0,0
0:2:6.163,502.164,28.4202,0,0.000885,0,0
0:2:6.951,506.039,28.6339,0,0.000885,0,0
0:2:7.745,509.143,28.8132,0,0.000885,0,0
0:2:8.532,512.489,28.9993,0,0.000885,0,0
0:2:9.337,516.594,29.2338,0,0.000885,0,0
0:2:10.139,520.291,29.4406,0,0.000885,0,0
0:2:10.930,523.516,29.6268,0,0.000885,0,0
0:2:11.721,526.914,29.8198,0,0.000885,0,0
0:2:12.510,530.081,29.9991,0,0.000885,0,0
0:2:13.302,533.248,30.1784,0,0.000885,0,0
0:2:14.097,537.123,30.3921,0,0.000885,0,0
0:2:14.902,540.815,30.6058,0,0.000885,0,0
0:2:15.696,544.453,30.8127,0,0.000885,0,0
0:2:16.491,548.145,31.0195,0,0.000885,0,0
0:2:17.278,551.255,31.1919,0,0.000885,0,0
0:2:18.067,554.248,31.3643,0,0.000885,0,0
0:2:18.866,558.354,31.5987,0,0.000885,0,0
0:2:19.668,562.166,31.8124,0,0.000885,0,0
0:2:20.461,565.333,31.9917,0,0.000885,0,0
0:2:21.270,568.558,32.1709,0,0.000885,0,0
0:2:22.075,572.193,32.3778,0,0.000885,0,0
0:2:22.882,576.125,32.6053,0,0.000885,0,0
0:2:23.675,580.64,32.8604,0,0.000885,0,0
0:2:24.481,583.749,33.0328,0,0.000885,0,0
0:2:25.282,586.623,33.1983,0,0.000885,0,0
0:2:26.070,589.732,33.3706,0,0.000885,0,0
0:2:26.871,593.66,33.5913,0,0.000885,0,0
0:2:27.679,597.361,33.805,0,0.000885,0,0
0:2:28.469,601.115,34.0187,0,0.000885,0,0
0:2:29.278,604.402,34.2049,0,0.000885,0,0
0:2:30.083,607.925,34.4048,0,0.000885,0,0
0:2:30.882,611.212,34.5841,0,0.000885,0,0
0:2:31.682,614.678,34.7841,0,0.000885,0,0
0:2:32.479,619.077,35.0323,0,0.000885,0,0
0:2:33.283,622.013,35.1977,0,0.000885,0,0
0:2:34.092,625.416,35.3908,0,0.000885,0,0
0:2:34.898,629.174,35.6045,0,0.000885,0,0
0:2:35.688,632.346,35.7838,0,0.000885,0,0
0:2:36.486,636.394,36.0113,0,0.000885,0,0
0:2:37.276,639.859,36.2113,0,0.000885,0,0
0:2:38.071,642.853,36.3767,0,0.000885,0,0
0:2:38.876,646.843,36.6043,0,0.000885,0,0
0:2:39.682,649.894,36.7766,0,0.000885,0,0
0:2:40.483,654.182,37.018,0,0.000885,0,0
0:2:41.283,656.998,37.1765,0,0.000885,0,0
0:2:42.083,660.872,37.3972,0,0.000885,0,0
0:2:42.883,664.511,37.604,0,0.000885,0,0
0:2:43.682,668.034,37.804,0,0.000885,0,0
0:2:44.491,671.437,37.997,0,0.000885,0,0
0:2:45.292,675.369,38.2176,0,0.000885,0,0
0:2:46.088,678.598,38.4038,0,0.000885,0,0
0:2:46.879,682.882,38.6451,0,0.000885,0,0
0:2:47.687,685.289,38.7761,0,0.000885,0,0
0:2:48.479,688.869,38.983,0,0.000885,0,0
0:2:49.288,692.57,39.1898,0,0.000885,0,0
0:2:50.093,695.858,39.376,0,0.000885,0,0
0:2:50.886,699.612,39.5897,0,0.000885,0,0
0:2:51.685,703.371,39.8034,0,0.000885,0,0
0:2:52.477,706.716,39.9896,0,0.000885,0,0
0:2:53.284,710.474,40.2033,0,0.000885,0,0
0:2:54.085,714.287,40.4171,0,0.000885,0,0
0:2:54.892,718.103,40.6377,0,0.000885,0,0
0:2:55.690,720.625,40.7825,0,0.000885,0,0
0:2:56.482,723.912,40.9618,0,0.000885,0,0
0:2:57.279,727.849,41.1893,0,0.000885,0,0
0:2:58.079,731.724,41.4099,0,0.000885,0,0
0:2:58.888,734.833,41.5823,0,0.000885,0,0
0:2:59.699,738.943,41.8167,0,0.000885,0,0
0:3:0.502,742.23,42.0029,0,0.000885,0,0
0:3:1.294,745.691,42.1959,0,0.000885,0,0
0:3:2.090,748.805,42.3752,0,0.000885,0,0
0:3:2.883,752.795,42.6027,0,0.000885,0,0
0:3:3.682,756.318,42.7958,0,0.000885,0,0
0:3:4.490,759.427,42.975,0,0.000885,0,0
0:3:5.290,763.244,43.1888,0,0.000885,0,0
0:3:6.087,766.473,43.3749,0,0.000885,0,0
0:3:6.887,769.053,43.5197,0,0.000885,0,0
0:3:7.684,771.873,43.6783,0,0.000885,0,0
0:3:8.473,772.282,43.699,0,0.000885,0,0
0:3:9.282,764.004,43.237,0,0.000885,0,0
0:3:10.082,578.878,32.757,0,0.000885,0,0
0:3:10.123,578.878,32.757,0,0.000885,0,0

File: DataFile2021-06-08_051845.csv
Test ID:,Date Tested:,Time:,Test Type:,Diameter Avg. (mm):,Cyl. Corr. Factor:,Height (mm):,Age (days):,Weight (kN):,Break Type:,Ramp Rate (MPa/s):,Load at Break (kN):,Stress at Break (MPa):
12,6/8/2021,05:18,Cylinder,150,1,300,0,3.6,1,0.24,884.46,50.05
Sample Time,Load (kN),Stress (MPa),Long. Strain,Trans. Strain,Chan1 Deflection (mm),Chan2 Deflection (mm)
0:0:13.884,5.98286,0.337843,0,0.000885,0,0
0:0:14.778,16.365,0.923897,0,0.000885,0,0
0:0:15.673,15.3686,0.868739,0,0.000885,0,0
0:0:16.562,16.1871,0.917003,0,0.000885,0,0
0:0:17.453,19.9414,1.13074,0,0.000885,0,0
0:0:18.351,24.4563,1.38585,0,0.000885,0,0
0:0:19.249,30.2034,1.7099,0,0.000885,0,0
0:0:20.162,33.3706,1.88916,0,0.000885,0,0
0:0:21.064,36.7156,2.07532,0,0.000885,0,0
0:0:21.962,41.1149,2.32353,0,0.000885,0,0
0:0:22.859,45.2206,2.55795,0,0.000885,0,0
0:0:23.752,48.6191,2.75101,0,0.000885,0,0
0:0:24.656,53.3698,3.0199,0,0.000885,0,0
0:0:25.565,56.3056,3.18538,0,0.000885,0,0
0:0:26.467,61.1719,3.46117,0,0.000885,0,0
0:0:27.363,64.6327,3.65422,0,0.000885,0,0
0:0:28.256,68.6805,3.88864,0,0.000885,0,0
0:0:29.158,73.022,4.12996,0,0.000885,0,0
0:0:30.070,76.714,4.3437,0,0.000885,0,0
0:0:30.971,80.5262,4.55743,0,0.000885,0,0
0:0:31.865,84.6897,4.79186,0,0.000885,0,0
0:0:32.764,89.3247,5.05386,0,0.000885,0,0
0:0:33.661,92.3139,5.22623,0,0.000885,0,0
0:0:34.565,96.4197,5.45375,0,0.000885,0,0
0:0:35.471,101.348,5.73644,0,0.000885,0,0
0:0:36.370,104.515,5.9157,0,0.000885,0,0
0:0:37.267,108.385,6.13633,0,0.000885,0,0
0:0:38.161,112.082,6.34318,0,0.000885,0,0
0:0:39.055,117.126,6.62586,0,0.000885,0,0
0:0:39.967,120.702,6.8327,0,0.000885,0,0
0:0:40.873,124.986,7.07402,0,0.000885,0,0
0:0:41.769,128.736,7.28776,0,0.000885,0,0
0:0:42.662,132.375,7.48771,0,0.000885,0,0
0:0:43.561,136.071,7.70144,0,0.000885,0,0
0:0:44.459,140.35,7.94276,0,0.000885,0,0
0:0:45.369,144.928,8.19787,0,0.000885,0,0
0:0:46.269,147.801,8.36334,0,0.000885,0,0
0:0:47.168,151.729,8.58397,0,0.000885,0,0
0:0:48.066,156.831,8.87355,0,0.000885,0,0
0:0:48.960,159.94,9.05282,0,0.000885,0,0
0:0:49.871,163.93,9.27345,0,0.000885,0,0
0:0:50.775,168.094,9.51477,0,0.000885,0,0
0:0:51.672,172.431,9.75608,0,0.000885,0,0
0:0:52.568,176.305,9.97671,0,0.000885,0,0
0:0:53.464,180.291,10.2042,0,0.000885,0,0
0:0:54.367,183.636,10.3904,0,0.000885,0,0
0:0:55.277,187.799,10.6248,0,0.000885,0,0
0:0:56.179,192.199,10.873,0,0.000885,0,0
0:0:57.067,196.184,11.1006,0,0.000885,0,0
0:0:57.956,200.704,11.3557,0,0.000885,0,0
0:0:58.847,203.226,11.5005,0,0.000885,0,0
0:0:59.748,208.092,11.7762,0,0.000885,0,0
0:1:0.649,212.492,12.0245,0,0.000885,0,0
0:1:1.549,215.832,12.2106,0,0.000885,0,0
0:1:2.451,219.644,12.4312,0,0.000885,0,0
0:1:3.348,223.812,12.6657,0,0.000885,0,0
0:1:4.249,227.389,12.8656,0,0.000885,0,0
0:1:5.156,231.73,13.1138,0,0.000885,0,0
0:1:6.051,236.067,13.362,0,0.000885,0,0
0:1:6.953,239.879,13.5758,0,0.000885,0,0
0:1:7.852,244.279,13.824,0,0.000885,0,0
0:1:8.750,247.446,14.0033,0,0.000885,0,0
0:1:9.659,251.729,14.2446,0,0.000885,0,0
0:1:10.562,255.835,14.479,0,0.000885,0,0
0:1:11.456,259.763,14.6996,0,0.000885,0,0
0:1:12.344,263.108,14.8858,0,0.000885,0,0
0:1:13.253,267.565,15.1409,0,0.000885,0,0
0:1:14.151,270.963,15.3339,0,0.000885,0,0
0:1:15.058,275.363,15.5822,0,0.000885,0,0
0:1:15.959,280.056,15.851,0,0.000885,0,0
0:1:16.844,283.458,16.0372,0,0.000885,0,0
0:1:17.754,287.444,16.2647,0,0.000885,0,0
0:1:18.644,291.376,16.4854,0,0.000885,0,0
0:1:19.555,295.011,16.6922,0,0.000885,0,0
0:1:20.456,299.294,16.9335,0,0.000885,0,0
0:1:21.354,302.991,17.1473,0,0.000885,0,0
0:1:22.244,307.034,17.3748,0,0.000885,0,0
0:1:23.157,311.14,17.6092,0,0.000885,0,0
0:1:24.056,315.717,17.8643,0,0.000885,0,0
0:1:24.961,319,18.0505,0,0.000885,0,0
0:1:25.861,322.928,18.2711,0,0.000885,0,0
0:1:26.749,327.327,18.5262,0,0.000885,0,0
0:1:27.656,331.139,18.74,0,0.000885,0,0
0:1:28.542,335.129,18.9675,0,0.000885,0,0
0:1:29.444,339.293,19.2019,0,0.000885,0,0
0:1:30.353,343.34,19.4294,0,0.000885,0,0
0:1:31.255,347.21,19.6501,0,0.000885,0,0
0:1:32.156,350.965,19.8638,0,0.000885,0,0
0:1:33.044,354.425,20.0568,0,0.000885,0,0
0:1:33.956,358.883,20.312,0,0.000885,0,0
0:1:34.859,363.34,20.5602,0,0.000885,0,0
0:1:35.757,366.685,20.7532,0,0.000885,0,0
0:1:36.658,370.906,20.9876,0,0.000885,0,0
0:1:37.557,373.958,21.16,0,0.000885,0,0
0:1:38.454,378.997,21.4496,0,0.000885,0,0
0:1:39.361,382.752,21.6564,0,0.000885,0,0
0:1:40.264,386.39,21.8633,0,0.000885,0,0
0:1:41.161,390.612,22.1046,0,0.000885,0,0
0:1:42.058,395.127,22.3597,0,0.000885,0,0
0:1:42.957,398.294,22.539,0,0.000885,0,0
0:1:43.846,402.226,22.7596,0,0.000885,0,0
0:1:44.756,406.741,23.0147,0,0.000885,0,0
0:1:45.659,410.789,23.2491,0,0.000885,0,0
0:1:46.558,414.717,23.4698,0,0.000885,0,0
0:1:47.458,419.058,23.7111,0,0.000885,0,0
0:1:48.347,422.283,23.8972,0,0.000885,0,0
0:1:49.257,426.447,24.1317,0,0.000885,0,0
0:1:50.162,430.966,24.3868,0,0.000885,0,0
0:1:51.059,434.658,24.5936,0,0.000885,0,0
0:1:51.951,438.234,24.8004,0,0.000885,0,0
0:1:52.846,441.757,25.0004,0,0.000885,0,0
0:1:53.743,446.152,25.2486,0,0.000885,0,0
0:1:54.659,450.614,25.4968,0,0.000885,0,0
0:1:55.566,454.484,25.7174,0,0.000885,0,0
0:1:56.462,458.238,25.9312,0,0.000885,0,0
0:1:57.358,462.811,26.1932,0,0.000885,0,0
0:1:58.255,466.271,26.3862,0,0.000885,0,0
0:1:59.161,469.968,26.5931,0,0.000885,0,0
0:2:0.065,474.305,26.8413,0,0.000885,0,0
0:2:0.962,477.824,27.0412,0,0.000885,0,0
0:2:1.860,481.991,27.2757,0,0.000885,0,0
0:2:2.759,486.916,27.5515,0,0.000885,0,0
0:2:3.659,489.847,27.7169,0,0.000885,0,0
0:2:4.558,493.721,27.9376,0,0.000885,0,0
0:2:5.461,498.294,28.1996,0,0.000885,0,0
0:2:6.359,501.577,28.3857,0,0.000885,0,0
0:2:7.261,505.918,28.627,0,0.000885,0,0
0:2:8.161,510.26,28.8752,0,0.000885,0,0
0:2:9.057,514.188,29.0959,0,0.000885,0,0
0:2:9.963,517.942,29.3096,0,0.000885,0,0
0:2:10.861,521.87,29.5302,0,0.000885,0,0
0:2:11.762,526.038,29.7647,0,0.000885,0,0
0:2:12.662,530.081,29.9991,0,0.000885,0,0
0:2:13.558,534.365,30.2404,0,0.000885,0,0
0:2:14.463,537.416,30.4128,0,0.000885,0,0
0:2:15.367,541.638,30.6472,0,0.000885,0,0
0:2:16.263,546.388,30.9161,0,0.000885,0,0
0:2:17.159,549.791,31.1091,0,0.000885,0,0
0:2:18.058,553.719,31.3367,0,0.000885,0,0
0:2:18.959,557.589,31.5504,0,0.000885,0,0
0:2:19.859,561.401,31.771,0,0.000885,0,0
0:2:20.759,566.272,32.0468,0,0.000885,0,0
0:2:21.655,569.733,32.2399,0,0.000885,0,0
0:2:22.556,573.073,32.426,0,0.000885,0,0
0:2:23.456,577.237,32.6674,0,0.000885,0,0
0:2:24.360,581.169,32.888,0,0.000885,0,0
0:2:25.261,585.39,33.1293,0,0.000885,0,0
0:2:26.162,589.674,33.3706,0,0.000885,0,0
0:2:27.063,593.428,33.5844,0,0.000885,0,0
0:2:27.956,597.596,33.8188,0,0.000885,0,0
0:2:28.859,601.822,34.0532,0,0.000885,0,0
0:2:29.766,605.634,34.2738,0,0.000885,0,0
0:2:30.672,609.629,34.4945,0,0.000885,0,0
0:2:31.564,613.855,34.7358,0,0.000885,0,0
0:2:32.455,617.435,34.9426,0,0.000885,0,0
0:2:33.360,621.425,35.1633,0,0.000885,0,0
0:2:34.264,625.184,35.377,0,0.000885,0,0
0:2:35.173,629.352,35.6114,0,0.000885,0,0
0:2:36.071,633.284,35.8389,0,0.000885,0,0
0:2:36.968,637.217,36.0596,0,0.000885,0,0
0:2:37.861,641.265,36.2871,0,0.000885,0,0
0:2:38.762,644.845,36.494,0,0.000885,0,0
0:2:39.662,649.191,36.7353,0,0.000885,0,0
0:2:40.570,652.594,36.9283,0,0.000885,0,0
0:2:41.469,657.056,37.1834,0,0.000885,0,0
0:2:42.361,662.398,37.4868,0,0.000885,0,0
0:2:43.262,664.627,37.6109,0,0.000885,0,0
0:2:44.159,668.972,37.8591,0,0.000885,0,0
0:2:45.067,673.083,38.0866,0,0.000885,0,0
0:2:45.966,676.895,38.3073,0,0.000885,0,0
0:2:46.858,681.063,38.5417,0,0.000885,0,0
0:2:47.752,684.706,38.7485,0,0.000885,0,0
0:2:48.654,689.283,39.0036,0,0.000885,0,0
0:2:49.569,693.567,39.245,0,0.000885,0,0
0:2:50.473,696.738,39.4242,0,0.000885,0,0
0:2:51.369,700.435,39.638,0,0.000885,0,0
0:2:52.263,705.19,39.9069,0,0.000885,0,0
0:2:53.152,708.886,40.1137,0,0.000885,0,0
0:2:54.054,712.587,40.3274,0,0.000885,0,0
0:2:54.965,717.28,40.5894,0,0.000885,0,0
0:2:55.870,720.923,40.7963,0,0.000885,0,0
0:2:56.761,724.268,40.9824,0,0.000885,0,0
0:2:57.663,728.668,41.2375,0,0.000885,0,0
0:2:58.560,732.133,41.4306,0,0.000885,0,0
0:2:59.462,736.888,41.6995,0,0.000885,0,0
0:3:0.367,741.229,41.9477,0,0.000885,0,0
0:3:1.261,744.81,42.1477,0,0.000885,0,0
0:3:2.155,748.333,42.3476,0,0.000885,0,0
0:3:3.047,752.853,42.6027,0,0.000885,0,0
0:3:3.960,756.611,42.8164,0,0.000885,0,0
0:3:4.870,760.601,43.044,0,0.000885,0,0
0:3:5.773,764.769,43.2784,0,0.000885,0,0
0:3:6.667,768.88,43.5128,0,0.000885,0,0
0:3:7.556,772.34,43.7059,0,0.000885,0,0
0:3:8.460,776.393,43.9334,0,0.000885,0,0
0:3:9.354,780.383,44.1609,0,0.000885,0,0
0:3:10.267,784.257,44.3816,0,0.000885,0,0
0:3:11.165,787.429,44.5608,0,0.000885,0,0
0:3:12.059,792.651,44.8573,0,0.000885,0,0
0:3:12.964,796.877,45.0917,0,0.000885,0,0
0:3:13.854,799.812,45.2572,0,0.000885,0,0
0:3:14.768,804.39,45.5192,0,0.000885,0,0
0:3:15.676,808.442,45.7467,0,0.000885,0,0
0:3:16.572,812.49,45.9742,0,0.000885,0,0
0:3:17.467,816.306,46.1949,0,0.000885,0,0
0:3:18.366,819.652,46.381,0,0.000885,0,0
0:3:19.267,823.997,46.6292,0,0.000885,0,0
0:3:20.175,827.872,46.8499,0,0.000885,0,0
0:3:21.075,832.685,47.1188,0,0.000885,0,0
0:3:21.966,835.914,47.3049,0,0.000885,0,0
0:3:22.861,839.789,47.5256,0,0.000885,0,0
0:3:23.765,844.25,47.7738,0,0.000885,0,0
0:3:24.669,847.595,47.9668,0,0.000885,0,0
0:3:25.574,851.937,48.2081,0,0.000885,0,0
0:3:26.467,855.989,48.4357,0,0.000885,0,0
0:3:27.363,859.392,48.6287,0,0.000885,0,0
0:3:28.268,863.324,48.8563,0,0.000885,0,0
0:3:29.158,867.083,49.07,0,0.000885,0,0
0:3:30.069,870.606,49.263,0,0.000885,0,0
0:3:30.970,874.596,49.4906,0,0.000885,0,0
0:3:31.867,877.768,49.6698,0,0.000885,0,0
0:3:32.770,881.464,49.8836,0,0.000885,0,0
0:3:33.664,884.631,50.0628,0,0.000885,0,0
0:3:34.561,883.635,50.0008,0,0.000885,0,0
0:3:35.466,795.765,45.0297,0,0.000885,0,0
0:3:35.778,623.716,35.2943,0,0.000885,0,0