Folder: Experiment-Files (part 78)

File: DataFile2021-07-15_074907.csv
Test ID:,Date Tested:,Time:,Test Type:,Diameter Avg. (mm):,Cyl. Corr. Factor:,Height (mm):,Age (days):,Weight (kN):,Break Type:,Ramp Rate (MPa/s):,Load at Break (kN):,Stress at Break (MPa):
12,7/15/2021,07:49,Cylinder,100,1,200,0,3.6,3,0.25,1564.35,199.18
Sample Time,Load (kN),Stress (MPa),Long. Strain,Trans. Strain,Chan1 Deflection (mm),Chan2 Deflection (mm)
0:0:5.892,6.09851,0.779108,0,0.000885,0,0
0:0:9.300,11.3207,1.441,0,0.000885,0,0
0:0:12.723,18.3578,2.33732,0,0.000885,0,0
0:0:16.108,25.1013,3.19917,0,0.000885,0,0
0:0:19.515,32.2007,4.10238,0,0.000885,0,0
0:0:22.925,38.8864,4.95044,0,0.000885,0,0
0:0:26.310,45.2206,5.75712,0,0.000885,0,0
0:0:29.714,52.1421,6.63965,0,0.000885,0,0
0:0:33.133,58.8856,7.4946,0,0.000885,0,0
0:0:36.529,65.2777,8.30818,0,0.000885,0,0
0:0:39.925,71.9633,9.16313,0,0.000885,0,0
0:0:43.337,79.0004,10.0595,0,0.000885,0,0
0:0:46.724,85.397,10.873,0,0.000885,0,0
0:0:50.123,92.434,11.7694,0,0.000885,0,0
0:0:53.530,98.5904,12.5554,0,0.000885,0,0
0:0:56.928,105.276,13.4034,0,0.000885,0,0
0:1:0.317,111.788,14.2308,0,0.000885,0,0
0:1:3.729,118.825,15.1271,0,0.000885,0,0
0:1:7.124,125.689,16.0027,0,0.000885,0,0
0:1:10.520,132.197,16.8301,0,0.000885,0,0
0:1:13.925,138.651,17.6506,0,0.000885,0,0
0:1:17.329,145.982,18.5883,0,0.000885,0,0
0:1:20.717,152.258,19.3881,0,0.000885,0,0
0:1:24.127,158.53,20.1878,0,0.000885,0,0
0:1:27.528,165.278,21.0428,0,0.000885,0,0
0:1:30.913,172.431,21.9529,0,0.000885,0,0
0:1:34.325,179.294,22.8285,0,0.000885,0,0
0:1:37.739,185.513,23.6214,0,0.000885,0,0
0:1:41.121,192.079,24.4557,0,0.000885,0,0
0:1:44.518,199.236,25.3658,0,0.000885,0,0
0:1:47.917,205.806,26.207,0,0.000885,0,0
0:1:51.315,212.256,27.0274,0,0.000885,0,0
0:1:54.714,218.999,27.8824,0,0.000885,0,0
0:1:58.125,225.921,28.7649,0,0.000885,0,0
0:2:1.522,232.606,29.6199,0,0.000885,0,0
0:2:4.920,239.119,30.4472,0,0.000885,0,0
0:2:8.323,244.924,31.185,0,0.000885,0,0
0:2:11.723,252.254,32.1158,0,0.000885,0,0
0:2:15.123,259.411,33.0259,0,0.000885,0,0
0:2:18.522,265.861,33.8533,0,0.000885,0,0
0:2:21.926,272.138,34.6531,0,0.000885,0,0
0:2:25.326,279.468,35.5838,0,0.000885,0,0
0:2:28.725,285.745,36.3836,0,0.000885,0,0
0:2:32.129,292.079,37.1903,0,0.000885,0,0
0:2:35.525,298.529,38.0108,0,0.000885,0,0
0:2:38.924,305.628,38.914,0,0.000885,0,0
0:2:42.330,311.669,39.6862,0,0.000885,0,0
0:2:45.722,318.822,40.5963,0,0.000885,0,0
0:2:49.121,325.979,41.5064,0,0.000885,0,0
0:2:52.537,333.074,42.4097,0,0.000885,0,0
0:2:55.928,339.408,43.2163,0,0.000885,0,0
0:2:59.330,345.863,44.0368,0,0.000885,0,0
0:3:2.729,352.606,44.8987,0,0.000885,0,0
0:3:6.125,358.589,45.6571,0,0.000885,0,0
0:3:9.526,365.92,46.5879,0,0.000885,0,0
0:3:12.924,372.374,47.4152,0,0.000885,0,0
0:3:16.320,379.705,48.346,0,0.000885,0,0
0:3:19.729,385.274,49.0562,0,0.000885,0,0
0:3:23.138,393.076,50.049,0,0.000885,0,0
0:3:26.524,399.526,50.8695,0,0.000885,0,0
0:3:29.930,406.096,51.7038,0,0.000885,0,0
0:3:33.334,412.724,52.5518,0,0.000885,0,0
0:3:36.726,419.587,53.4206,0,0.000885,0,0
0:3:40.134,425.859,54.2204,0,0.000885,0,0
0:3:43.529,433.252,55.165,0,0.000885,0,0
0:3:46.929,438.822,55.8751,0,0.000885,0,0
0:3:50.331,445.507,56.7232,0,0.000885,0,0
0:3:53.730,452.429,57.6057,0,0.000885,0,0
0:3:57.137,459.937,58.5641,0,0.000885,0,0
0:4:0.535,466.387,59.3845,0,0.000885,0,0
0:4:3.932,473.251,60.2533,0,0.000885,0,0
0:4:7.336,478.998,60.991,0,0.000885,0,0
0:4:10.735,486.506,61.9425,0,0.000885,0,0
0:4:14.133,492.721,62.7354,0,0.000885,0,0
0:4:17.539,499.878,63.6455,0,0.000885,0,0
0:4:20.935,506.039,64.4315,0,0.000885,0,0
0:4:24.337,513.018,65.3209,0,0.000885,0,0
0:4:27.739,519.352,66.1276,0,0.000885,0,0
0:4:31.139,525.451,66.8998,0,0.000885,0,0
0:4:34.535,533.017,67.8651,0,0.000885,0,0
0:4:37.939,539.116,68.6442,0,0.000885,0,0
0:4:41.339,545.45,69.4509,0,0.000885,0,0
0:4:44.737,552.193,70.3058,0,0.000885,0,0
0:4:48.133,558.763,71.147,0,0.000885,0,0
0:4:51.533,566.623,72.1467,0,0.000885,0,0
0:4:54.937,572.838,72.9327,0,0.000885,0,0
0:4:58.330,579.759,73.8153,0,0.000885,0,0
0:5:1.726,585.212,74.5116,0,0.000885,0,0
0:5:5.134,592.605,75.4562,0,0.000885,0,0
0:5:8.539,599.651,76.3525,0,0.000885,0,0
0:5:11.944,606.226,77.1868,0,0.000885,0,0
0:5:15.338,612.858,78.0349,0,0.000885,0,0
0:5:18.742,618.788,78.7864,0,0.000885,0,0
0:5:22.145,626.123,79.7241,0,0.000885,0,0
0:5:25.541,633.52,80.6618,0,0.000885,0,0
0:5:28.945,639.801,81.4616,0,0.000885,0,0
0:5:32.344,646.082,82.2613,0,0.000885,0,0
0:5:35.728,652.305,83.0542,0,0.000885,0,0
0:5:39.138,659.702,83.9988,0,0.000885,0,0
0:5:42.555,666.45,84.8538,0,0.000885,0,0
0:5:45.934,672.38,85.6122,0,0.000885,0,0
0:5:49.344,680.009,86.5844,0,0.000885,0,0
0:5:52.756,686.819,87.4462,0,0.000885,0,0
0:5:56.140,692.455,88.1633,0,0.000885,0,0
0:5:59.536,700.026,89.1285,0,0.000885,0,0
0:6:2.952,706.369,89.9352,0,0.000885,0,0
0:6:6.334,712.587,90.7281,0,0.000885,0,0
0:6:9.728,719.575,91.6175,0,0.000885,0,0
0:6:13.149,726.559,92.507,0,0.000885,0,0
0:6:16.557,732.956,93.3205,0,0.000885,0,0
0:6:19.944,739.472,94.1548,0,0.000885,0,0
0:6:23.356,746.047,94.9891,0,0.000885,0,0
0:6:26.748,753.444,95.9337,0,0.000885,0,0
0:6:30.147,759.667,96.7265,0,0.000885,0,0
0:6:33.556,766.122,97.547,0,0.000885,0,0
0:6:36.951,773.105,98.4364,0,0.000885,0,0
0:6:40.332,779.973,99.3121,0,0.000885,0,0
0:6:43.748,786.432,100.133,0,0.000885,0,0
0:6:47.149,793.122,100.981,0,0.000885,0,0
0:6:50.542,800.284,101.898,0,0.000885,0,0
0:6:53.949,806.507,102.691,0,0.000885,0,0
0:6:57.343,813.491,103.58,0,0.000885,0,0
0:7:0.732,819.834,104.387,0,0.000885,0,0
0:7:4.141,826.288,105.207,0,0.000885,0,0
0:7:7.566,833.214,106.09,0,0.000885,0,0
0:7:10.941,839.144,106.841,0,0.000885,0,0
0:7:14.344,846.305,107.758,0,0.000885,0,0
0:7:17.751,852.938,108.599,0,0.000885,0,0
0:7:21.131,859.926,109.489,0,0.000885,0,0
0:7:24.534,866.496,110.323,0,0.000885,0,0
0:7:27.961,873.484,111.212,0,0.000885,0,0
0:7:31.359,880.058,112.054,0,0.000885,0,0
0:7:34.754,886.633,112.888,0,0.000885,0,0
0:7:38.164,893.323,113.743,0,0.000885,0,0
0:7:41.552,899.782,114.563,0,0.000885,0,0
0:7:44.942,906.294,115.391,0,0.000885,0,0
0:7:48.355,913.456,116.308,0,0.000885,0,0
0:7:51.754,920.088,117.149,0,0.000885,0,0
0:7:55.156,926.311,117.942,0,0.000885,0,0
0:7:58.562,932.943,118.783,0,0.000885,0,0
0:8:1.960,939.989,119.686,0,0.000885,0,0
0:8:5.340,946.212,120.472,0,0.000885,0,0
0:8:8.758,953.899,121.451,0,0.000885,0,0
0:8:12.155,959.886,122.216,0,0.000885,0,0
0:8:15.548,966.581,123.071,0,0.000885,0,0
0:8:18.945,973.035,123.892,0,0.000885,0,0
0:8:22.348,979.788,124.754,0,0.000885,0,0
0:8:25.755,986.304,125.581,0,0.000885,0,0
0:8:29.151,993.052,126.436,0,0.000885,0,0
0:8:32.562,1000.51,127.388,0,0.000885,0,0
0:8:35.959,1006.32,128.125,0,0.000885,0,0
0:8:39.361,1013.36,129.028,0,0.000885,0,0
0:8:42.773,1020.17,129.89,0,0.000885,0,0
0:8:46.145,1026.33,130.676,0,0.000885,0,0
0:8:49.553,1033.32,131.566,0,0.000885,0,0
0:8:52.967,1040.71,132.51,0,0.000885,0,0
0:8:56.360,1046.41,133.234,0,0.000885,0,0
0:8:59.754,1053.45,134.131,0,0.000885,0,0
0:9:3.161,1059.68,134.924,0,0.000885,0,0
0:9:6.559,1067.13,135.868,0,0.000885,0,0
0:9:9.942,1073.47,136.682,0,0.000885,0,0
0:9:13.364,1079.81,137.488,0,0.000885,0,0
0:9:16.763,1086.97,138.398,0,0.000885,0,0
0:9:20.162,1093.6,139.24,0,0.000885,0,0
0:9:23.567,1099.94,140.046,0,0.000885,0,0
0:9:26.959,1107.1,140.963,0,0.000885,0,0
0:9:30.349,1113.44,141.77,0,0.000885,0,0
0:9:33.765,1120.49,142.666,0,0.000885,0,0
0:9:37.160,1126.36,143.411,0,0.000885,0,0
0:9:40.554,1133.64,144.342,0,0.000885,0,0
0:9:43.968,1140.68,145.238,0,0.000885,0,0
0:9:47.368,1147.43,146.093,0,0.000885,0,0
0:9:50.753,1154.01,146.934,0,0.000885,0,0
0:9:54.167,1160.52,147.762,0,0.000885,0,0
0:9:57.566,1167.45,148.644,0,0.000885,0,0
0:10:0.958,1174.02,149.478,0,0.000885,0,0
0:10:4.359,1180.48,150.306,0,0.000885,0,0
0:10:7.754,1187.05,151.14,0,0.000885,0,0
0:10:11.124,1193.92,152.016,0,0.000885,0,0
0:10:14.520,1199.85,152.767,0,0.000885,0,0
0:10:17.921,1207.07,153.691,0,0.000885,0,0
0:10:21.295,1213.35,154.491,0,0.000885,0,0
0:10:24.693,1220.57,155.408,0,0.000885,0,0
0:10:28.095,1226.97,156.221,0,0.000885,0,0
0:10:31.473,1233.19,157.014,0,0.000885,0,0
0:10:34.864,1240.18,157.904,0,0.000885,0,0
0:10:38.271,1247.22,158.8,0,0.000885,0,0
0:10:41.665,1253.21,159.565,0,0.000885,0,0
0:10:45.070,1260.78,160.531,0,0.000885,0,0
0:10:48.471,1267.06,161.33,0,0.000885,0,0
0:10:51.865,1273.17,162.103,0,0.000885,0,0
0:10:55.254,1279.92,162.964,0,0.000885,0,0
0:10:58.659,1287.02,163.868,0,0.000885,0,0
0:11:2.050,1293.94,164.75,0,0.000885,0,0
0:11:5.424,1299.93,165.516,0,0.000885,0,0
0:11:8.823,1306.21,166.315,0,0.000885,0,0
0:11:12.210,1313.49,167.239,0,0.000885,0,0
0:11:15.587,1320.01,168.067,0,0.000885,0,0
0:11:18.987,1326.58,168.908,0,0.000885,0,0
0:11:22.381,1333.86,169.832,0,0.000885,0,0
0:11:25.777,1340.02,170.618,0,0.000885,0,0
0:11:29.165,1346.66,171.459,0,0.000885,0,0
0:11:32.579,1353.46,172.328,0,0.000885,0,0
0:11:35.976,1361.1,173.3,0,0.000885,0,0
0:11:39.376,1366.73,174.017,0,0.000885,0,0
0:11:42.779,1373.25,174.844,0,0.000885,0,0
0:11:46.156,1380.7,175.796,0,0.000885,0,0
0:11:49.553,1386.81,176.575,0,0.000885,0,0
0:11:52.946,1393.38,177.409,0,0.000885,0,0
0:11:56.323,1400.25,178.285,0,0.000885,0,0
0:11:59.720,1407.23,179.174,0,0.000885,0,0
0:12:3.113,1412.87,179.891,0,0.000885,0,0
0:12:6.497,1420.5,180.863,0,0.000885,0,0
0:12:9.880,1427.13,181.711,0,0.000885,0,0
0:12:13.282,1432.95,182.449,0,0.000885,0,0
0:12:16.687,1440.22,183.373,0,0.000885,0,0
0:12:20.079,1446.21,184.138,0,0.000885,0,0
0:12:23.477,1452.96,185,0,0.000885,0,0
0:12:26.888,1459.77,185.862,0,0.000885,0,0
0:12:30.264,1466.05,186.662,0,0.000885,0,0
0:12:33.663,1473.39,187.599,0,0.000885,0,0
0:12:37.064,1480.38,188.489,0,0.000885,0,0
0:12:40.484,1486.8,189.302,0,0.000885,0,0
0:12:43.884,1494.34,190.268,0,0.000885,0,0
0:12:47.275,1502.58,191.316,0,0.000885,0,0
0:12:50.683,1506.47,191.812,0,0.000885,0,0
0:12:54.076,1513.71,192.729,0,0.000885,0,0
0:12:57.488,1520.13,193.55,0,0.000885,0,0
0:13:0.865,1526.6,194.37,0,0.000885,0,0
0:13:4.280,1533.43,195.246,0,0.000885,0,0
0:13:7.692,1540.09,196.087,0,0.000885,0,0
0:13:11.080,1546.92,196.963,0,0.000885,0,0
0:13:14.476,1553.75,197.831,0,0.000885,0,0
0:13:17.874,1560.58,198.7,0,0.000885,0,0
0:13:20.789,1564.23,199.162,0,0.000885,0,0

File: DataFile2021-07-15_080623.csv
Test ID:,Date Tested:,Time:,Test Type:,Diameter Avg. (mm):,Cyl. Corr. Factor:,Height (mm):,Age (days):,Weight (kN):,Break Type:,Ramp Rate (MPa/s):,Load at Break (kN):,Stress at Break (MPa):
12,7/15/2021,08:06,Cylinder,100,1,200,0,3.6,3,0.25,1435.29,182.75
Sample Time,Load (kN),Stress (MPa),Long. Strain,Trans. Strain,Chan1 Deflection (mm),Chan2 Deflection (mm)
0:0:23.034,5.21776,0.661897,0,0.000885,0,0
0:0:26.114,10.9693,1.39964,0,0.000885,0,0
0:0:29.224,16.7742,2.13737,0,0.000885,0,0
0:0:32.314,23.0507,2.93717,0,0.000885,0,0
0:0:35.433,26.5114,3.37843,0,0.000885,0,0
0:0:38.523,31.4934,4.01275,0,0.000885,0,0
0:0:41.623,37.245,4.74359,0,0.000885,0,0
0:0:44.728,44.1619,5.62612,0,0.000885,0,0
0:0:47.814,52.1421,6.63965,0,0.000885,0,0
0:0:50.932,61.1141,7.78418,0,0.000885,0,0
0:0:54.024,66.0383,8.4116,0,0.000885,0,0
0:0:57.123,72.0834,9.17692,0,0.000885,0,0
0:1:0.233,78.2398,9.96292,0,0.000885,0,0
0:1:3.315,84.0447,10.7007,0,0.000885,0,0
0:1:6.427,90.1477,11.4798,0,0.000885,0,0
0:1:9.527,96.6554,12.3071,0,0.000885,0,0
0:1:12.617,102.58,13.0587,0,0.000885,0,0
0:1:15.735,108.621,13.8309,0,0.000885,0,0
0:1:18.829,114.777,14.6169,0,0.000885,0,0
0:1:21.927,120.351,15.3202,0,0.000885,0,0
0:1:25.038,126.801,16.1475,0,0.000885,0,0
0:1:28.120,133.135,16.9542,0,0.000885,0,0
0:1:31.237,139.59,17.7747,0,0.000885,0,0
0:1:34.338,144.985,18.4573,0,0.000885,0,0
0:1:37.427,151.493,19.2915,0,0.000885,0,0
0:1:40.534,156.889,19.9741,0,0.000885,0,0
0:1:43.613,163.459,20.8153,0,0.000885,0,0
0:1:46.726,169.851,21.6289,0,0.000885,0,0
0:1:49.844,175.66,22.3666,0,0.000885,0,0
0:1:52.926,181.581,23.1181,0,0.000885,0,0
0:1:56.035,187.622,23.8903,0,0.000885,0,0
0:1:59.137,193.662,24.6557,0,0.000885,0,0
0:2:2.221,200.468,25.5244,0,0.000885,0,0
0:2:5.325,205.922,26.2208,0,0.000885,0,0
0:2:8.431,211.904,26.9792,0,0.000885,0,0
0:2:11.522,217.887,27.7445,0,0.000885,0,0
0:2:14.637,224.337,28.565,0,0.000885,0,0
0:2:17.728,230.32,29.3234,0,0.000885,0,0
0:2:20.827,236.539,30.1163,0,0.000885,0,0
0:2:23.924,242.931,30.9299,0,0.000885,0,0
0:2:27.023,248.384,31.6263,0,0.000885,0,0
0:2:30.132,254.603,32.4191,0,0.000885,0,0
0:2:33.224,260.759,33.1983,0,0.000885,0,0
0:2:36.332,266.978,33.9912,0,0.000885,0,0
0:2:39.417,272.667,34.7151,0,0.000885,0,0
0:2:42.528,278.414,35.4459,0,0.000885,0,0
0:2:45.625,284.984,36.2871,0,0.000885,0,0
0:2:48.733,291.612,37.1283,0,0.000885,0,0
0:2:51.829,297.417,37.866,0,0.000885,0,0
0:2:54.935,303.4,38.6313,0,0.000885,0,0
0:2:58.036,309.498,39.4035,0,0.000885,0,0
0:3:1.133,315.775,40.2033,0,0.000885,0,0
0:3:4.242,321.931,40.9893,0,0.000885,0,0
0:3:7.328,327.211,41.665,0,0.000885,0,0
0:3:10.423,333.545,42.4717,0,0.000885,0,0
0:3:13.535,339.702,43.2508,0,0.000885,0,0
0:3:16.632,345.863,44.0368,0,0.000885,0,0
0:3:19.738,351.552,44.7608,0,0.000885,0,0
0:3:22.831,358.18,45.6019,0,0.000885,0,0
0:3:25.936,364.336,46.3879,0,0.000885,0,0
0:3:29.038,369.91,47.0981,0,0.000885,0,0
0:3:32.132,376.302,47.9117,0,0.000885,0,0
0:3:35.237,382.694,48.7252,0,0.000885,0,0
0:3:38.338,388.912,49.5181,0,0.000885,0,0
0:3:41.437,395.127,50.311,0,0.000885,0,0
0:3:44.543,400.936,51.0488,0,0.000885,0,0
0:3:47.641,406.447,51.752,0,0.000885,0,0
0:3:50.738,413.017,52.5863,0,0.000885,0,0
0:3:53.842,419.409,53.3999,0,0.000885,0,0
0:3:56.938,425.335,54.1583,0,0.000885,0,0
0:4:0.028,431.197,54.903,0,0.000885,0,0
0:4:3.141,436.299,55.5511,0,0.000885,0,0
0:4:6.237,443.399,56.4543,0,0.000885,0,0
0:4:9.346,449.261,57.1989,0,0.000885,0,0
0:4:12.434,455.596,58.0056,0,0.000885,0,0
0:4:15.539,461.579,58.7709,0,0.000885,0,0
0:4:18.638,467.677,59.55,0,0.000885,0,0
0:4:21.743,474.011,60.3498,0,0.000885,0,0
0:4:24.839,479.936,61.1082,0,0.000885,0,0
0:4:27.938,485.51,61.8184,0,0.000885,0,0
0:4:31.032,492.018,62.6458,0,0.000885,0,0
0:4:34.146,497.943,63.3973,0,0.000885,0,0
0:4:37.239,503.868,64.1557,0,0.000885,0,0
0:4:40.346,510.376,64.9831,0,0.000885,0,0
0:4:43.439,517.003,65.8242,0,0.000885,0,0
0:4:46.538,521.99,66.4586,0,0.000885,0,0
0:4:49.650,528.382,67.279,0,0.000885,0,0
0:4:52.745,534.481,68.0513,0,0.000885,0,0
0:4:55.839,541.344,68.9269,0,0.000885,0,0
0:4:58.945,546.682,69.6026,0,0.000885,0,0
0:5:2.034,553.19,70.4368,0,0.000885,0,0
0:5:5.140,558.706,71.1332,0,0.000885,0,0
0:5:8.234,565.391,71.9882,0,0.000885,0,0
0:5:11.329,571.138,72.719,0,0.000885,0,0
0:5:14.452,577.179,73.4912,0,0.000885,0,0
0:5:17.540,583.22,74.2565,0,0.000885,0,0
0:5:20.641,589.558,75.0632,0,0.000885,0,0
0:5:23.737,595.839,75.863,0,0.000885,0,0
0:5:26.844,601.591,76.5939,0,0.000885,0,0
0:5:29.951,607.578,77.3592,0,0.000885,0,0
0:5:33.032,614.153,78.1934,0,0.000885,0,0
0:5:36.144,620.14,78.9588,0,0.000885,0,0
0:5:39.246,626.069,79.7103,0,0.000885,0,0
0:5:42.349,631.349,80.386,0,0.000885,0,0
0:5:45.459,637.457,81.1651,0,0.000885,0,0
0:5:48.555,643.675,81.958,0,0.000885,0,0
0:5:51.646,650.312,82.7991,0,0.000885,0,0
0:5:54.753,656.531,83.592,0,0.000885,0,0
0:5:57.850,662.638,84.3711,0,0.000885,0,0
0:6:0.950,669.035,85.1847,0,0.000885,0,0
0:6:4.052,674.026,85.819,0,0.000885,0,0
0:6:7.154,681.009,86.7085,0,0.000885,0,0
0:6:10.256,687.29,87.5083,0,0.000885,0,0
0:6:13.339,692.811,88.2115,0,0.000885,0,0
0:6:16.439,698.913,88.9906,0,0.000885,0,0
0:6:19.556,705.194,89.7904,0,0.000885,0,0
0:6:22.635,711.004,90.5282,0,0.000885,0,0
0:6:25.737,717.578,91.3624,0,0.000885,0,0
0:6:28.851,723.801,92.1553,0,0.000885,0,0
0:6:31.953,729.379,92.8655,0,0.000885,0,0
0:6:35.052,735.776,93.6791,0,0.000885,0,0
0:6:38.143,741.412,94.3961,0,0.000885,0,0
0:6:41.245,747.163,95.1339,0,0.000885,0,0
0:6:44.349,754.031,96.0095,0,0.000885,0,0
0:6:47.453,759.783,96.7403,0,0.000885,0,0
0:6:50.551,766.478,97.5884,0,0.000885,0,0
0:6:53.645,772.345,98.3399,0,0.000885,0,0
0:6:56.757,777.981,99.057,0,0.000885,0,0
0:6:59.859,783.968,99.8154,0,0.000885,0,0
0:7:2.945,790.191,100.608,0,0.000885,0,0
0:7:6.064,796.414,101.401,0,0.000885,0,0
0:7:9.162,802.459,102.173,0,0.000885,0,0
0:7:12.252,808.211,102.904,0,0.000885,0,0
0:7:15.354,814.785,103.739,0,0.000885,0,0
0:7:18.460,820.599,104.483,0,0.000885,0,0
0:7:21.560,826.88,105.283,0,0.000885,0,0
0:7:24.654,832.983,106.062,0,0.000885,0,0
0:7:27.752,839.322,106.869,0,0.000885,0,0
0:7:30.855,845.073,107.6,0,0.000885,0,0
0:7:33.952,851.003,108.351,0,0.000885,0,0
0:7:37.047,857.404,109.165,0,0.000885,0,0
0:7:40.159,863.68,109.964,0,0.000885,0,0
0:7:43.252,868.849,110.626,0,0.000885,0,0
0:7:46.358,875.481,111.468,0,0.000885,0,0
0:7:49.470,881.468,112.233,0,0.000885,0,0
0:7:52.562,887.514,113.005,0,0.000885,0,0
0:7:55.659,894.088,113.839,0,0.000885,0,0
0:7:58.753,899.666,114.549,0,0.000885,0,0
0:8:1.858,906.121,115.37,0,0.000885,0,0
0:8:4.954,912.05,116.128,0,0.000885,0,0
0:8:8.041,918.037,116.887,0,0.000885,0,0
0:8:11.150,924.025,117.652,0,0.000885,0,0
0:8:14.275,930.012,118.411,0,0.000885,0,0
0:8:17.356,936.408,119.224,0,0.000885,0,0
0:8:20.454,942.222,119.969,0,0.000885,0,0
0:8:23.567,948.739,120.796,0,0.000885,0,0
0:8:26.657,954.726,121.561,0,0.000885,0,0
0:8:29.767,960.945,122.354,0,0.000885,0,0
0:8:32.851,966.759,123.092,0,0.000885,0,0
0:8:35.949,973.333,123.926,0,0.000885,0,0
0:8:39.044,978.32,124.561,0,0.000885,0,0
0:8:42.164,985.308,125.45,0,0.000885,0,0
0:8:45.267,991.175,126.202,0,0.000885,0,0
0:8:48.359,996.869,126.926,0,0.000885,0,0
0:8:51.457,1003.56,127.781,0,0.000885,0,0
0:8:54.571,1009.14,128.491,0,0.000885,0,0
0:8:57.653,1015.54,129.304,0,0.000885,0,0
0:9:0.754,1021.76,130.097,0,0.000885,0,0
0:9:3.879,1027.86,130.869,0,0.000885,0,0
0:9:6.970,1034.14,131.669,0,0.000885,0,0
0:9:10.072,1039.54,132.359,0,0.000885,0,0
0:9:13.161,1046.36,133.227,0,0.000885,0,0
0:9:16.273,1051.93,133.938,0,0.000885,0,0
0:9:19.360,1058.21,134.737,0,0.000885,0,0
0:9:22.469,1064.37,135.523,0,0.000885,0,0
0:9:25.568,1070.77,136.337,0,0.000885,0,0
0:9:28.657,1076.59,137.075,0,0.000885,0,0
0:9:31.756,1082.75,137.861,0,0.000885,0,0
0:9:34.864,1088.44,138.585,0,0.000885,0,0
0:9:37.939,1094.49,139.357,0,0.000885,0,0
0:9:41.041,1100.77,140.157,0,0.000885,0,0
0:9:44.131,1107.11,140.963,0,0.000885,0,0
0:9:47.220,1112.68,141.673,0,0.000885,0,0
0:9:50.320,1118.73,142.439,0,0.000885,0,0
0:9:53.401,1124.66,143.197,0,0.000885,0,0
0:9:56.497,1130.47,143.935,0,0.000885,0,0
0:9:59.594,1137.05,144.776,0,0.000885,0,0
0:10:2.673,1143.33,145.576,0,0.000885,0,0
0:10:5.775,1149.67,146.383,0,0.000885,0,0
0:10:8.875,1155.47,147.12,0,0.000885,0,0
0:10:11.960,1161.05,147.83,0,0.000885,0,0
0:10:15.073,1167.1,148.603,0,0.000885,0,0
0:10:18.167,1173.21,149.375,0,0.000885,0,0
0:10:21.273,1179.95,150.237,0,0.000885,0,0
0:10:24.378,1185.7,150.968,0,0.000885,0,0
0:10:27.473,1191.34,151.685,0,0.000885,0,0
0:10:30.578,1197.86,152.519,0,0.000885,0,0
0:10:33.665,1204.02,153.298,0,0.000885,0,0
0:10:36.761,1209.65,154.015,0,0.000885,0,0
0:10:39.882,1216.29,154.863,0,0.000885,0,0
0:10:42.956,1222.63,155.67,0,0.000885,0,0
0:10:46.065,1228.26,156.387,0,0.000885,0,0
0:10:49.169,1234.25,157.152,0,0.000885,0,0
0:10:52.251,1240.53,157.952,0,0.000885,0,0
0:10:55.351,1245.87,158.628,0,0.000885,0,0
0:10:58.432,1252.27,159.441,0,0.000885,0,0
0:11:1.527,1258.61,160.248,0,0.000885,0,0
0:11:4.628,1265.07,161.075,0,0.000885,0,0
0:11:7.705,1270.94,161.82,0,0.000885,0,0
0:11:10.802,1276.39,162.516,0,0.000885,0,0
0:11:13.897,1282.85,163.337,0,0.000885,0,0
0:11:16.981,1288.96,164.116,0,0.000885,0,0
0:11:20.091,1294.83,164.861,0,0.000885,0,0
0:11:23.174,1301.46,165.709,0,0.000885,0,0
0:11:26.274,1307.39,166.46,0,0.000885,0,0
0:11:29.384,1313.2,167.205,0,0.000885,0,0
0:11:32.467,1319.42,167.991,0,0.000885,0,0
0:11:35.565,1325.12,168.722,0,0.000885,0,0
0:11:38.651,1331.34,169.515,0,0.000885,0,0
0:11:41.744,1337.62,170.314,0,0.000885,0,0
0:11:44.848,1343.55,171.066,0,0.000885,0,0
0:11:47.919,1349.77,171.859,0,0.000885,0,0
0:11:51.020,1356.23,172.679,0,0.000885,0,0
0:11:54.115,1361.98,173.41,0,0.000885,0,0
0:11:57.198,1368.02,174.182,0,0.000885,0,0
0:12:0.300,1373.78,174.913,0,0.000885,0,0
0:12:3.386,1380.12,175.72,0,0.000885,0,0
0:12:6.476,1386.34,176.513,0,0.000885,0,0
0:12:9.589,1392.68,177.319,0,0.000885,0,0
0:12:12.670,1398.32,178.036,0,0.000885,0,0
0:12:15.785,1404.89,178.878,0,0.000885,0,0
0:12:18.887,1410.94,179.643,0,0.000885,0,0
0:12:21.978,1417.39,180.47,0,0.000885,0,0
0:12:25.091,1422.67,181.139,0,0.000885,0,0
0:12:28.163,1429.13,181.96,0,0.000885,0,0
0:12:31.263,1434.89,182.697,0,0.000885,0,0
0:12:33.604,1078.4,137.309,0,0.000885,0,0