Folder: Experiment-Files (part 96)

File: DataFile2021-07-28_104710.csv
Test ID:,Date Tested:,Time:,Test Type:,Diameter Avg. (mm):,Cyl. Corr. Factor:,Height (mm):,Age (days):,Weight (kN):,Break Type:,Ramp Rate (MPa/s):,Load at Break (kN):,Stress at Break (MPa):
12,7/28/2021,10:47,Cylinder,100,1,200,0,13.69,3,0.35,1286.43,163.79
Sample Time,Load (kN),Stress (MPa),Long. Strain,Trans. Strain,Chan1 Deflection (mm),Chan2 Deflection (mm)
0:0:13.571,5.8672,0.744634,0,0.000885,0,0
0:0:15.575,10.0307,1.27553,0,0.000885,0,0
0:0:17.570,15.7778,2.00637,0,0.000885,0,0
0:0:19.584,21.0534,2.68206,0,0.000885,0,0
0:0:21.582,27.0363,3.44048,0,0.000885,0,0
0:0:23.572,33.1971,4.22649,0,0.000885,0,0
0:0:25.585,38.6506,4.92286,0,0.000885,0,0
0:0:27.576,44.3977,5.6537,0,0.000885,0,0
0:0:29.578,49.1484,6.26044,0,0.000885,0,0
0:0:31.584,54.722,6.9706,0,0.000885,0,0
0:0:33.573,60.5848,7.71523,0,0.000885,0,0
0:0:35.584,65.7492,8.37024,0,0.000885,0,0
0:0:37.576,70.6155,8.99076,0,0.000885,0,0
0:0:39.582,77.0076,9.80434,0,0.000885,0,0
0:0:41.578,82.2877,10.48,0,0.000885,0,0
0:0:43.570,87.9769,11.204,0,0.000885,0,0
0:0:45.585,93.1369,11.859,0,0.000885,0,0
0:0:47.577,98.5326,12.5485,0,0.000885,0,0
0:0:49.587,104.458,13.3,0,0.000885,0,0
0:0:51.594,109.675,13.9619,0,0.000885,0,0
0:0:53.582,114.662,14.5962,0,0.000885,0,0
0:0:55.596,120.996,15.4029,0,0.000885,0,0
0:0:57.584,126.392,16.0924,0,0.000885,0,0
0:0:59.592,131.845,16.7887,0,0.000885,0,0
0:1:1.589,137.183,17.4644,0,0.000885,0,0
0:1:3.581,142.93,18.1953,0,0.000885,0,0
0:1:5.597,148.446,18.8985,0,0.000885,0,0
0:1:7.588,153.255,19.5122,0,0.000885,0,0
0:1:9.588,159.295,20.2844,0,0.000885,0,0
0:1:11.591,164.749,20.9739,0,0.000885,0,0
0:1:13.580,170.029,21.6495,0,0.000885,0,0
0:1:15.594,176.243,22.4424,0,0.000885,0,0
0:1:17.583,180.878,23.0285,0,0.000885,0,0
0:1:19.589,186.452,23.7386,0,0.000885,0,0
0:1:21.589,191.905,24.435,0,0.000885,0,0
0:1:23.574,198.004,25.2072,0,0.000885,0,0
0:1:25.586,203.399,25.8967,0,0.000885,0,0
0:1:27.571,208.679,26.5724,0,0.000885,0,0
0:1:29.581,214.369,27.2963,0,0.000885,0,0
0:1:31.568,220.289,28.0479,0,0.000885,0,0
0:1:33.572,224.924,28.6408,0,0.000885,0,0
0:1:35.570,230.204,29.3096,0,0.000885,0,0
0:1:37.578,235.951,30.0405,0,0.000885,0,0
0:1:39.571,242.05,30.8196,0,0.000885,0,0
0:1:41.561,246.859,31.4332,0,0.000885,0,0
0:1:43.578,251.961,32.0813,0,0.000885,0,0
0:1:45.585,258.588,32.9225,0,0.000885,0,0
0:1:47.567,263.926,33.605,0,0.000885,0,0
0:1:49.560,269.028,34.2532,0,0.000885,0,0
0:1:51.563,274.776,34.984,0,0.000885,0,0
0:1:53.567,279.526,35.5907,0,0.000885,0,0
0:1:55.579,285.981,36.4112,0,0.000885,0,0
0:1:57.573,291.083,37.0593,0,0.000885,0,0
0:1:59.573,296.656,37.7695,0,0.000885,0,0
0:2:1.580,301.99,38.4521,0,0.000885,0,0
0:2:3.584,307.154,39.1071,0,0.000885,0,0
0:2:5.582,313.426,39.9069,0,0.000885,0,0
0:2:7.579,318.591,40.5619,0,0.000885,0,0
0:2:9.571,323.928,41.2444,0,0.000885,0,0
0:2:11.572,329.088,41.8994,0,0.000885,0,0
0:2:13.567,335.013,42.6579,0,0.000885,0,0
0:2:15.574,341.054,43.4232,0,0.000885,0,0
0:2:17.579,345.627,44.0092,0,0.000885,0,0
0:2:19.584,351.725,44.7814,0,0.000885,0,0
0:2:21.581,357.299,45.4916,0,0.000885,0,0
0:2:23.575,362.343,46.1328,0,0.000885,0,0
0:2:25.576,367.33,46.7671,0,0.000885,0,0
0:2:27.583,374.247,47.6497,0,0.000885,0,0
0:2:29.574,378.295,48.1668,0,0.000885,0,0
0:2:31.564,384.513,48.9597,0,0.000885,0,0
0:2:33.567,389.38,49.5802,0,0.000885,0,0
0:2:35.585,395.598,50.3662,0,0.000885,0,0
0:2:37.586,400.994,51.0557,0,0.000885,0,0
0:2:39.585,405.86,51.6762,0,0.000885,0,0
0:2:41.577,412.194,52.4829,0,0.000885,0,0
0:2:43.583,417.826,53.1999,0,0.000885,0,0
0:2:45.582,423.515,53.9239,0,0.000885,0,0
0:2:47.573,427.857,54.4755,0,0.000885,0,0
0:2:49.556,433.662,55.2132,0,0.000885,0,0
0:2:51.546,439.173,55.9165,0,0.000885,0,0
0:2:53.517,444.924,56.6473,0,0.000885,0,0
0:2:55.515,450.027,57.3023,0,0.000885,0,0
0:2:57.489,455.889,58.047,0,0.000885,0,0
0:2:59.488,461.579,58.7709,0,0.000885,0,0
0:3:1.493,466.449,59.3914,0,0.000885,0,0
0:3:3.466,472.312,60.1361,0,0.000885,0,0
0:3:5.464,477.592,60.8118,0,0.000885,0,0
0:3:7.439,482.988,61.4943,0,0.000885,0,0
0:3:9.432,488.499,62.1976,0,0.000885,0,0
0:3:11.416,494.015,62.9009,0,0.000885,0,0
0:3:13.395,499.117,63.549,0,0.000885,0,0
0:3:15.399,504.922,64.2867,0,0.000885,0,0
0:3:17.375,510.611,65.0107,0,0.000885,0,0
0:3:19.380,516.301,65.7346,0,0.000885,0,0
0:3:21.380,521.051,66.3414,0,0.000885,0,0
0:3:23.383,526.914,67.086,0,0.000885,0,0
0:3:25.387,532.723,67.8306,0,0.000885,0,0
0:3:27.379,537.768,68.4718,0,0.000885,0,0
0:3:29.380,543.688,69.2234,0,0.000885,0,0
0:3:31.379,549.32,69.9404,0,0.000885,0,0
0:3:33.377,554.422,70.5885,0,0.000885,0,0
0:3:35.375,559.996,71.2987,0,0.000885,0,0
0:3:37.382,566.036,72.0709,0,0.000885,0,0
0:3:39.384,570.845,72.6845,0,0.000885,0,0
0:3:41.381,576.476,73.4016,0,0.000885,0,0
0:3:43.397,582.223,74.1324,0,0.000885,0,0
0:3:45.399,587.445,74.7943,0,0.000885,0,0
0:3:47.382,592.961,75.4976,0,0.000885,0,0
0:3:49.378,598.126,76.1526,0,0.000885,0,0
0:3:51.379,603.762,76.8765,0,0.000885,0,0
0:3:53.362,609.104,77.5522,0,0.000885,0,0
0:3:55.373,615.091,78.3175,0,0.000885,0,0
0:3:57.378,620.198,78.9657,0,0.000885,0,0
0:3:59.391,625.771,79.6758,0,0.000885,0,0
0:4:1.383,630.998,80.3377,0,0.000885,0,0
0:4:3.377,636.576,81.0479,0,0.000885,0,0
0:4:5.388,642.443,81.7994,0,0.000885,0,0
0:4:7.382,647.786,82.482,0,0.000885,0,0
0:4:9.396,652.777,83.1163,0,0.000885,0,0
0:4:11.389,659.115,83.923,0,0.000885,0,0
0:4:13.376,664.809,84.6469,0,0.000885,0,0
0:4:15.396,669.738,85.2744,0,0.000885,0,0
0:4:17.393,675.667,86.0259,0,0.000885,0,0
0:4:19.400,680.538,86.6464,0,0.000885,0,0
0:4:21.401,686.645,87.4255,0,0.000885,0,0
0:4:23.385,692.045,88.115,0,0.000885,0,0
0:4:25.396,697.325,88.7838,0,0.000885,0,0
0:4:27.390,702.374,89.4319,0,0.000885,0,0
0:4:29.386,708.539,90.211,0,0.000885,0,0
0:4:31.385,713.468,90.8384,0,0.000885,0,0
0:4:33.380,719.575,91.6175,0,0.000885,0,0
0:4:35.389,724.504,92.245,0,0.000885,0,0
0:4:37.396,730.198,92.9689,0,0.000885,0,0
0:4:39.397,735.598,93.6584,0,0.000885,0,0
0:4:41.391,740.94,94.341,0,0.000885,0,0
0:4:43.377,746.985,95.1063,0,0.000885,0,0
0:4:45.389,752.328,95.7889,0,0.000885,0,0
0:4:47.383,757.612,96.4645,0,0.000885,0,0
0:4:49.402,763.248,97.1816,0,0.000885,0,0
0:4:51.404,769.293,97.9469,0,0.000885,0,0
0:4:53.397,774.284,98.5812,0,0.000885,0,0
0:4:55.414,780.209,99.3397,0,0.000885,0,0
0:4:57.401,785.378,99.9947,0,0.000885,0,0
0:4:59.413,790.778,100.684,0,0.000885,0,0
0:5:1.408,796.41,101.401,0,0.000885,0,0
0:5:3.403,801.93,102.104,0,0.000885,0,0
0:5:5.414,807.094,102.759,0,0.000885,0,0
0:5:7.402,813.139,103.532,0,0.000885,0,0
0:5:9.398,818.482,104.214,0,0.000885,0,0
0:5:11.399,823.708,104.876,0,0.000885,0,0
0:5:13.402,828.988,105.552,0,0.000885,0,0
0:5:15.412,834.744,106.283,0,0.000885,0,0
0:5:17.393,840.554,107.02,0,0.000885,0,0
0:5:19.395,845.838,107.696,0,0.000885,0,0
0:5:21.391,851.176,108.379,0,0.000885,0,0
0:5:23.386,856.403,109.041,0,0.000885,0,0
0:5:25.406,862.096,109.765,0,0.000885,0,0
0:5:27.389,867.612,110.468,0,0.000885,0,0
0:5:29.390,873.133,111.171,0,0.000885,0,0
0:5:31.402,878.181,111.812,0,0.000885,0,0
0:5:33.394,884.106,112.571,0,0.000885,0,0
0:5:35.406,890.036,113.322,0,0.000885,0,0
0:5:37.403,895.614,114.032,0,0.000885,0,0
0:5:39.400,901.014,114.722,0,0.000885,0,0
0:5:41.396,905.943,115.349,0,0.000885,0,0
0:5:43.392,911.814,116.094,0,0.000885,0,0
0:5:45.422,917.392,116.804,0,0.000885,0,0
0:5:47.409,922.966,117.514,0,0.000885,0,0
0:5:49.410,928.602,118.231,0,0.000885,0,0
0:5:51.402,934.002,118.921,0,0.000885,0,0
0:5:53.405,939.402,119.61,0,0.000885,0,0
0:5:55.419,944.802,120.293,0,0.000885,0,0
0:5:57.405,950.323,120.996,0,0.000885,0,0
0:5:59.411,956.132,121.741,0,0.000885,0,0
0:6:1.411,961.065,122.368,0,0.000885,0,0
0:6:3.406,966.817,123.099,0,0.000885,0,0
0:6:5.414,971.923,123.747,0,0.000885,0,0
0:6:7.398,978.084,124.533,0,0.000885,0,0
0:6:9.403,982.959,125.154,0,0.000885,0,0
0:6:11.404,988.768,125.891,0,0.000885,0,0
0:6:13.389,994.347,126.602,0,0.000885,0,0
0:6:15.413,1000.28,127.36,0,0.000885,0,0
0:6:17.397,1004.68,127.918,0,0.000885,0,0
0:6:19.398,1010.66,128.684,0,0.000885,0,0
0:6:21.398,1016.06,129.366,0,0.000885,0,0
0:6:23.391,1021.76,130.097,0,0.000885,0,0
0:6:25.401,1027.57,130.835,0,0.000885,0,0
0:6:27.386,1032.33,131.442,0,0.000885,0,0
0:6:29.388,1038.61,132.241,0,0.000885,0,0
0:6:31.385,1043.83,132.903,0,0.000885,0,0
0:6:33.372,1049.29,133.6,0,0.000885,0,0
0:6:35.384,1054.57,134.275,0,0.000885,0,0
0:6:37.372,1060.09,134.972,0,0.000885,0,0
0:6:39.370,1065.19,135.627,0,0.000885,0,0
0:6:41.369,1071.01,136.365,0,0.000885,0,0
0:6:43.353,1076.23,137.033,0,0.000885,0,0
0:6:45.365,1082.45,137.819,0,0.000885,0,0
0:6:47.351,1088.03,138.529,0,0.000885,0,0
0:6:49.348,1093.19,139.191,0,0.000885,0,0
0:6:51.352,1098.42,139.853,0,0.000885,0,0
0:6:53.337,1103.94,140.557,0,0.000885,0,0
0:6:55.348,1109.69,141.287,0,0.000885,0,0
0:6:57.334,1115.09,141.977,0,0.000885,0,0
0:6:59.337,1120.61,142.68,0,0.000885,0,0
0:7:1.331,1126.42,143.418,0,0.000885,0,0
0:7:3.320,1131.76,144.1,0,0.000885,0,0
0:7:5.332,1136.87,144.749,0,0.000885,0,0
0:7:7.319,1142.8,145.507,0,0.000885,0,0
0:7:9.315,1147.73,146.134,0,0.000885,0,0
0:7:11.316,1153.89,146.92,0,0.000885,0,0
0:7:13.298,1158.58,147.513,0,0.000885,0,0
0:7:15.317,1164.98,148.327,0,0.000885,0,0
0:7:17.312,1169.74,148.934,0,0.000885,0,0
0:7:19.304,1174.73,149.568,0,0.000885,0,0
0:7:21.305,1180.89,150.354,0,0.000885,0,0
0:7:23.300,1186.7,151.099,0,0.000885,0,0
0:7:25.313,1191.63,151.726,0,0.000885,0,0
0:7:27.305,1197.74,152.498,0,0.000885,0,0
0:7:29.305,1202.79,153.146,0,0.000885,0,0
0:7:31.301,1208.66,153.891,0,0.000885,0,0
0:7:33.299,1214.47,154.629,0,0.000885,0,0
0:7:35.307,1218.87,155.194,0,0.000885,0,0
0:7:37.304,1224.86,155.953,0,0.000885,0,0
0:7:39.308,1230.49,156.67,0,0.000885,0,0
0:7:41.310,1236.42,157.428,0,0.000885,0,0
0:7:43.303,1241.35,158.055,0,0.000885,0,0
0:7:45.322,1246.99,158.772,0,0.000885,0,0
0:7:47.319,1252.5,159.476,0,0.000885,0,0
0:7:49.322,1258.49,160.234,0,0.000885,0,0
0:7:51.317,1262.72,160.772,0,0.000885,0,0
0:7:53.296,1265.77,161.165,0,0.000885,0,0
0:7:55.305,1275.1,162.351,0,0.000885,0,0
0:7:57.289,1280.56,163.047,0,0.000885,0,0
0:7:59.292,1284.32,163.523,0,0.000885,0,0
0:8:0.748,1140.39,145.197,0,0.000885,0,0

File: DataFile2021-07-28_105420.csv
Test ID:,Date Tested:,Time:,Test Type:,Diameter Avg. (mm):,Cyl. Corr. Factor:,Height (mm):,Age (days):,Weight (kN):,Break Type:,Ramp Rate (MPa/s):,Load at Break (kN):,Stress at Break (MPa):
12,7/28/2021,10:54,Cylinder,100,1,200,0,13.69,3,0.34,848.77,108.07
Sample Time,Load (kN),Stress (MPa),Long. Strain,Trans. Strain,Chan1 Deflection (mm),Chan2 Deflection (mm)
0:0:17.828,5.57362,0.71016,0,0.000885,0,0
0:0:19.129,9.61706,1.22727,0,0.000885,0,0
0:0:20.439,11.1428,1.42032,0,0.000885,0,0
0:0:21.741,15.4264,1.96501,0,0.000885,0,0
0:0:23.035,19.5321,2.48901,0,0.000885,0,0
0:0:24.350,22.4057,2.85443,0,0.000885,0,0
0:0:25.649,27.1564,3.45427,0,0.000885,0,0
0:0:26.946,30.9685,3.9438,0,0.000885,0,0
0:0:28.243,34.7806,4.42643,0,0.000885,0,0
0:0:29.559,37.5964,4.78496,0,0.000885,0,0
0:0:30.849,40.5277,5.15728,0,0.000885,0,0
0:0:32.146,44.6335,5.68128,0,0.000885,0,0
0:0:33.447,48.6191,6.19149,0,0.000885,0,0
0:0:34.759,52.0798,6.63276,0,0.000885,0,0
0:0:36.050,55.367,7.04644,0,0.000885,0,0
0:0:37.347,58.8277,7.48771,0,0.000885,0,0
0:0:38.647,62.2262,7.92208,0,0.000885,0,0
0:0:39.958,65.8648,8.38402,0,0.000885,0,0
0:0:41.253,69.6769,8.87355,0,0.000885,0,0
0:0:42.547,73.7248,9.38376,0,0.000885,0,0
0:0:43.850,76.5405,9.74229,0,0.000885,0,0
0:0:45.160,80.2326,10.218,0,0.000885,0,0
0:0:46.457,84.107,10.7076,0,0.000885,0,0
0:0:47.751,87.5632,11.1488,0,0.000885,0,0
0:0:49.065,91.4955,11.6521,0,0.000885,0,0
0:0:50.363,95.014,12.1003,0,0.000885,0,0
0:0:51.657,98.239,12.5071,0,0.000885,0,0
0:0:52.949,101.993,12.9828,0,0.000885,0,0
0:0:54.265,105.454,13.4241,0,0.000885,0,0
0:0:55.565,109.088,13.8929,0,0.000885,0,0
0:0:56.860,112.549,14.3273,0,0.000885,0,0
0:0:58.149,115.774,14.741,0,0.000885,0,0
0:0:59.467,119.822,15.2581,0,0.000885,0,0
0:1:0.764,123.634,15.7407,0,0.000885,0,0
0:1:2.060,126.859,16.1544,0,0.000885,0,0
0:1:3.363,130.382,16.6026,0,0.000885,0,0
0:1:4.673,134.603,17.1404,0,0.000885,0,0
0:1:5.968,137.361,17.492,0,0.000885,0,0
0:1:7.260,141.173,17.9746,0,0.000885,0,0
0:1:8.565,144.692,18.4228,0,0.000885,0,0
0:1:9.873,148.504,18.9054,0,0.000885,0,0
0:1:11.171,152.196,19.3812,0,0.000885,0,0
0:1:12.464,155.541,19.8017,0,0.000885,0,0
0:1:13.772,159.117,20.2568,0,0.000885,0,0
0:1:15.077,162.698,20.7119,0,0.000885,0,0
0:1:16.369,166.626,21.2152,0,0.000885,0,0
0:1:17.664,169.615,21.5944,0,0.000885,0,0
0:1:18.974,173.369,22.077,0,0.000885,0,0
0:1:20.279,177.008,22.539,0,0.000885,0,0
0:1:21.569,180.527,22.9871,0,0.000885,0,0
0:1:22.866,184.223,23.456,0,0.000885,0,0
0:1:24.178,187.622,23.8903,0,0.000885,0,0
0:1:25.480,191.024,24.3247,0,0.000885,0,0
0:1:26.770,194.894,24.8142,0,0.000885,0,0
0:1:28.050,198.413,25.2624,0,0.000885,0,0
0:1:29.357,202.052,25.7243,0,0.000885,0,0
0:1:30.647,205.219,26.1311,0,0.000885,0,0
0:1:31.946,209.089,26.6207,0,0.000885,0,0
0:1:33.245,213.016,27.124,0,0.000885,0,0
0:1:34.550,216.246,27.5308,0,0.000885,0,0
0:1:35.849,219.88,27.9927,0,0.000885,0,0
0:1:37.145,223.225,28.4202,0,0.000885,0,0
0:1:38.438,227.153,28.9235,0,0.000885,0,0
0:1:39.747,230.792,29.3855,0,0.000885,0,0
0:1:41.042,233.959,29.7854,0,0.000885,0,0
0:1:42.345,237.709,30.268,0,0.000885,0,0
0:1:43.651,241.232,30.7161,0,0.000885,0,0
0:1:44.947,244.924,31.185,0,0.000885,0,0
0:1:46.245,247.855,31.5573,0,0.000885,0,0
0:1:47.527,252.081,32.0951,0,0.000885,0,0
0:1:48.827,255.599,32.5433,0,0.000885,0,0
0:1:50.122,259.002,32.9776,0,0.000885,0,0
0:1:51.446,262.343,33.4051,0,0.000885,0,0
0:1:52.752,266.155,33.8877,0,0.000885,0,0
0:1:54.052,269.558,34.3221,0,0.000885,0,0
0:1:55.348,273.37,34.8047,0,0.000885,0,0
0:1:56.649,277.182,35.2943,0,0.000885,0,0
0:1:57.944,280.291,35.6873,0,0.000885,0,0
0:1:59.256,284.103,36.1699,0,0.000885,0,0
0:2:0.549,286.919,36.5284,0,0.000885,0,0
0:2:1.843,291.025,37.0524,0,0.000885,0,0
0:2:3.145,294.659,37.5144,0,0.000885,0,0
0:2:4.452,298.004,37.9418,0,0.000885,0,0
0:2:5.750,301.758,38.4176,0,0.000885,0,0
0:2:7.048,305.157,38.852,0,0.000885,0,0
0:2:8.350,308.853,39.3277,0,0.000885,0,0
0:2:9.653,313.075,39.8655,0,0.000885,0,0
0:2:10.942,315.948,40.2309,0,0.000885,0,0
0:2:12.249,319.76,40.7135,0,0.000885,0,0
0:2:13.552,323.341,41.1686,0,0.000885,0,0
0:2:14.851,326.682,41.5961,0,0.000885,0,0
0:2:16.147,330.73,42.1132,0,0.000885,0,0
0:2:17.452,333.603,42.4786,0,0.000885,0,0
0:2:18.753,337.593,42.9819,0,0.000885,0,0
0:2:20.053,341.285,43.4508,0,0.000885,0,0
0:2:21.347,345.04,43.9334,0,0.000885,0,0
0:2:22.650,348.558,44.3816,0,0.000885,0,0
0:2:23.954,352.139,44.8366,0,0.000885,0,0
0:2:25.253,355.537,45.271,0,0.000885,0,0
0:2:26.551,358.825,45.6847,0,0.000885,0,0
0:2:27.852,362.517,46.1604,0,0.000885,0,0
0:2:29.158,366.271,46.6361,0,0.000885,0,0
0:2:30.447,369.616,47.0636,0,0.000885,0,0
0:2:31.755,373.019,47.4911,0,0.000885,0,0
0:2:33.054,376.595,47.9461,0,0.000885,0,0
0:2:34.360,380.114,48.3943,0,0.000885,0,0
0:2:35.647,384.335,48.9321,0,0.000885,0,0
0:2:36.954,387.796,49.3734,0,0.000885,0,0
0:2:38.254,391.55,49.856,0,0.000885,0,0
0:2:39.562,394.895,50.2766,0,0.000885,0,0
0:2:40.849,397.885,50.6627,0,0.000885,0,0
0:2:42.154,401.697,51.1453,0,0.000885,0,0
0:2:43.458,405.687,51.6555,0,0.000885,0,0
0:2:44.755,408.969,52.0692,0,0.000885,0,0
0:2:46.048,412.666,52.5449,0,0.000885,0,0
0:2:47.351,415.949,52.9586,0,0.000885,0,0
0:2:48.656,420.29,53.5102,0,0.000885,0,0
0:2:49.954,423.515,53.9239,0,0.000885,0,0
0:2:51.250,427.212,54.3927,0,0.000885,0,0
0:2:52.550,430.437,54.8064,0,0.000885,0,0
0:2:53.856,433.662,55.2132,0,0.000885,0,0
0:2:55.153,437.532,55.7096,0,0.000885,0,0
0:2:56.450,441.637,56.2336,0,0.000885,0,0
0:2:57.750,445.04,56.6611,0,0.000885,0,0
0:2:59.056,448.385,57.0886,0,0.000885,0,0
0:3:0.355,451.726,57.5161,0,0.000885,0,0
0:3:1.652,455.538,57.9987,0,0.000885,0,0
0:3:2.953,459.292,58.4813,0,0.000885,0,0
0:3:4.259,462.459,58.8812,0,0.000885,0,0
0:3:5.559,466.214,59.357,0,0.000885,0,0
0:3:6.855,470.493,59.9085,0,0.000885,0,0
0:3:8.155,473.135,60.2395,0,0.000885,0,0
0:3:9.461,476.769,60.7014,0,0.000885,0,0
0:3:10.747,480.172,61.1358,0,0.000885,0,0
0:3:12.053,483.984,61.6253,0,0.000885,0,0
0:3:13.358,488.148,62.1562,0,0.000885,0,0
0:3:14.664,491.373,62.563,0,0.000885,0,0
0:3:15.952,495.069,63.0319,0,0.000885,0,0
0:3:17.254,498.236,63.4387,0,0.000885,0,0
0:3:18.558,502.164,63.9351,0,0.000885,0,0
0:3:19.853,506.154,64.4453,0,0.000885,0,0
0:3:21.160,509.264,64.8383,0,0.000885,0,0
0:3:22.448,513.076,65.3278,0,0.000885,0,0
0:3:23.759,515.949,65.6932,0,0.000885,0,0
0:3:25.053,520.228,66.2379,0,0.000885,0,0
0:3:26.348,523.516,66.6585,0,0.000885,0,0
0:3:27.649,526.269,67.0101,0,0.000885,0,0
0:3:28.961,530.611,67.5617,0,0.000885,0,0
0:3:30.255,534.071,68.003,0,0.000885,0,0
0:3:31.560,537.826,68.4787,0,0.000885,0,0
0:3:32.849,541.522,68.9476,0,0.000885,0,0
0:3:34.159,544.453,69.3199,0,0.000885,0,0
0:3:35.446,547.794,69.7474,0,0.000885,0,0
0:3:36.760,552.193,70.3058,0,0.000885,0,0
0:3:38.054,555.654,70.7471,0,0.000885,0,0
0:3:39.359,559.351,71.2159,0,0.000885,0,0
0:3:40.659,562.633,71.6365,0,0.000885,0,0
0:3:41.958,566.739,72.1605,0,0.000885,0,0
0:3:43.246,570.258,72.6087,0,0.000885,0,0
0:3:44.549,573.309,72.9948,0,0.000885,0,0
0:3:45.837,577.824,73.574,0,0.000885,0,0
0:3:47.120,580.755,73.9463,0,0.000885,0,0
0:3:48.409,584.394,74.4082,0,0.000885,0,0
0:3:49.715,587.561,74.8081,0,0.000885,0,0
0:3:51.004,590.728,75.2149,0,0.000885,0,0
0:3:52.298,595.074,75.7665,0,0.000885,0,0
0:3:53.596,597.952,76.1319,0,0.000885,0,0
0:3:54.907,601.822,76.6283,0,0.000885,0,0
0:3:56.195,606.11,77.173,0,0.000885,0,0
0:3:57.488,609.162,77.5591,0,0.000885,0,0
0:3:58.795,612.978,78.0487,0,0.000885,0,0
0:4:0.094,616.03,78.4348,0,0.000885,0,0
0:4:1.386,620.14,78.9588,0,0.000885,0,0
0:4:2.674,622.604,79.269,0,0.000885,0,0
0:4:3.986,626.536,79.7723,0,0.000885,0,0
0:4:5.279,630.002,80.2136,0,0.000885,0,0
0:4:6.573,633.698,80.6824,0,0.000885,0,0
0:4:7.858,637.221,81.1306,0,0.000885,0,0
0:4:9.169,641.095,81.627,0,0.000885,0,0
0:4:10.466,645.263,82.1579,0,0.000885,0,0
0:4:11.766,648.844,82.613,0,0.000885,0,0
0:4:13.053,650.957,82.8819,0,0.000885,0,0
0:4:14.367,656.122,83.5369,0,0.000885,0,0
0:4:15.662,659.115,83.923,0,0.000885,0,0
0:4:16.960,662.87,84.3987,0,0.000885,0,0
0:4:18.264,666.219,84.8262,0,0.000885,0,0
0:4:19.575,669.564,85.2537,0,0.000885,0,0
0:4:20.869,673.318,85.7294,0,0.000885,0,0
0:4:22.167,677.193,86.2258,0,0.000885,0,0
0:4:23.461,680.186,86.605,0,0.000885,0,0
0:4:24.773,684.354,87.1359,0,0.000885,0,0
0:4:26.061,687.82,87.5772,0,0.000885,0,0
0:4:27.364,691.107,87.9909,0,0.000885,0,0
0:4:28.677,694.1,88.377,0,0.000885,0,0
0:4:29.980,698.091,88.8803,0,0.000885,0,0
0:4:31.267,702.023,89.3836,0,0.000885,0,0
0:4:32.569,705.782,89.8594,0,0.000885,0,0
0:4:33.875,708.775,90.2455,0,0.000885,0,0
0:4:35.175,712.765,90.7488,0,0.000885,0,0
0:4:36.464,716.404,91.2176,0,0.000885,0,0
0:4:37.762,719.927,91.6658,0,0.000885,0,0
0:4:39.073,723.392,92.1071,0,0.000885,0,0
0:4:40.368,726.617,92.5139,0,0.000885,0,0
0:4:41.660,730.082,92.9551,0,0.000885,0,0
0:4:42.967,733.899,93.4446,0,0.000885,0,0
0:4:44.280,737.186,93.8583,0,0.000885,0,0
0:4:45.572,741.234,94.3754,0,0.000885,0,0
0:4:46.866,744.993,94.8581,0,0.000885,0,0
0:4:48.161,747.986,95.2373,0,0.000885,0,0
0:4:49.474,751.918,95.7406,0,0.000885,0,0
0:4:50.768,755.557,96.2025,0,0.000885,0,0
0:4:52.069,759.022,96.6438,0,0.000885,0,0
0:4:53.368,762.777,97.1196,0,0.000885,0,0
0:4:54.674,766.064,97.5401,0,0.000885,0,0
0:4:55.965,769.76,98.009,0,0.000885,0,0
0:4:57.253,773.755,98.5192,0,0.000885,0,0
0:4:58.559,776.277,98.8363,0,0.000885,0,0
0:4:59.866,780.681,99.4017,0,0.000885,0,0
0:5:1.168,784.262,99.8568,0,0.000885,0,0
0:5:2.464,788.078,100.339,0,0.000885,0,0
0:5:3.776,791.303,100.753,0,0.000885,0,0
0:5:5.078,794.884,101.208,0,0.000885,0,0
0:5:6.373,798.7,101.691,0,0.000885,0,0
0:5:7.670,802.401,102.167,0,0.000885,0,0
0:5:8.980,805.159,102.518,0,0.000885,0,0
0:5:10.273,809.034,103.008,0,0.000885,0,0
0:5:11.565,812.201,103.414,0,0.000885,0,0
0:5:12.873,816.72,103.987,0,0.000885,0,0
0:5:14.184,819.656,104.359,0,0.000885,0,0
0:5:15.476,823.766,104.883,0,0.000885,0,0
0:5:16.766,826.933,105.29,0,0.000885,0,0
0:5:18.074,830.692,105.766,0,0.000885,0,0
0:5:19.385,833.099,106.076,0,0.000885,0,0
0:5:20.681,836.27,106.476,0,0.000885,0,0
0:5:21.969,840.26,106.986,0,0.000885,0,0
0:5:23.270,845.251,107.62,0,0.000885,0,0
0:5:24.581,848.77,108.068,0,0.000885,0,0
0:5:25.875,843.369,107.379,0,0.000885,0,0
0:5:27.166,732.604,93.2792,0,0.000885,0,0
0:5:27.671,638.511,81.2961,0,0.000885,0,0