Folder: Experiment-Files (part 94)

File: DataFile2021-07-28_100321.csv
Test ID:,Date Tested:,Time:,Test Type:,Diameter Avg. (mm):,Cyl. Corr. Factor:,Height (mm):,Age (days):,Weight (kN):,Break Type:,Ramp Rate (MPa/s):,Load at Break (kN):,Stress at Break (MPa):
12,7/28/2021,10:03,Cylinder,100,1,200,0,13.69,3,0.35,1026.4,130.68
Sample Time,Load (kN),Stress (MPa),Long. Strain,Trans. Strain,Chan1 Deflection (mm),Chan2 Deflection (mm)
0:0:3.508,5.7471,0.730844,0,0.000885,0,0
0:0:5.098,8.85641,1.13074,0,0.000885,0,0
0:0:6.690,13.785,1.75816,0,0.000885,0,0
0:0:8.280,17.4192,2.22011,0,0.000885,0,0
0:0:9.900,22.4635,2.86132,0,0.000885,0,0
0:0:11.500,27.3299,3.48185,0,0.000885,0,0
0:0:13.090,32.3163,4.11617,0,0.000885,0,0
0:0:14.696,35.8927,4.57122,0,0.000885,0,0
0:0:16.297,40.1185,5.10902,0,0.000885,0,0
0:0:17.891,44.8069,5.70196,0,0.000885,0,0
0:0:19.502,49.0906,6.25354,0,0.000885,0,0
0:0:21.105,53.6055,6.82581,0,0.000885,0,0
0:0:22.696,57.8313,7.3636,0,0.000885,0,0
0:0:24.299,62.582,7.97034,0,0.000885,0,0
0:0:25.909,66.6255,8.48055,0,0.000885,0,0
0:0:27.502,70.9091,9.02524,0,0.000885,0,0
0:0:29.099,75.8956,9.66645,0,0.000885,0,0
0:0:30.713,79.3563,10.1008,0,0.000885,0,0
0:0:32.302,84.2805,10.7282,0,0.000885,0,0
0:0:33.896,88.7954,11.3074,0,0.000885,0,0
0:0:35.515,93.4304,11.8935,0,0.000885,0,0
0:0:37.109,97.0068,12.3485,0,0.000885,0,0
0:0:38.700,101.758,12.9552,0,0.000885,0,0
0:0:40.319,106.508,13.562,0,0.000885,0,0
0:0:41.912,110.965,14.1274,0,0.000885,0,0
0:0:43.505,115.191,14.6651,0,0.000885,0,0
0:0:45.120,119.47,15.2098,0,0.000885,0,0
0:0:46.714,124.048,15.7959,0,0.000885,0,0
0:0:48.305,128.211,16.3268,0,0.000885,0,0
0:0:49.917,132.61,16.8853,0,0.000885,0,0
0:0:51.517,136.774,17.4162,0,0.000885,0,0
0:0:53.112,141.818,18.0574,0,0.000885,0,0
0:0:54.714,146.511,18.6572,0,0.000885,0,0
0:0:56.318,150.261,19.133,0,0.000885,0,0
0:0:57.911,154.896,19.719,0,0.000885,0,0
0:0:59.518,159.117,20.2568,0,0.000885,0,0
0:1:1.118,163.517,20.8222,0,0.000885,0,0
0:1:2.710,167.916,21.3806,0,0.000885,0,0
0:1:4.312,172.845,22.0081,0,0.000885,0,0
0:1:5.923,176.599,22.4838,0,0.000885,0,0
0:1:7.519,181.345,23.0905,0,0.000885,0,0
0:1:9.111,185.513,23.6214,0,0.000885,0,0
0:1:10.726,190.086,24.2006,0,0.000885,0,0
0:1:12.314,194.485,24.766,0,0.000885,0,0
0:1:13.899,198.239,25.2417,0,0.000885,0,0
0:1:15.499,202.697,25.8071,0,0.000885,0,0
0:1:17.092,207.563,26.4276,0,0.000885,0,0
0:1:18.692,211.726,26.9585,0,0.000885,0,0
0:1:20.300,216.597,27.579,0,0.000885,0,0
0:1:21.891,220.583,28.0823,0,0.000885,0,0
0:1:23.481,224.982,28.6477,0,0.000885,0,0
0:1:25.091,229.439,29.2131,0,0.000885,0,0
0:1:26.689,233.839,29.7716,0,0.000885,0,0
0:1:28.276,238.416,30.3576,0,0.000885,0,0
0:1:29.878,242.401,30.8609,0,0.000885,0,0
0:1:31.471,246.507,31.3849,0,0.000885,0,0
0:1:33.053,251.084,31.971,0,0.000885,0,0
0:1:34.653,255.951,32.5915,0,0.000885,0,0
0:1:36.243,260.644,33.1845,0,0.000885,0,0
0:1:37.822,264.336,33.6533,0,0.000885,0,0
0:1:39.416,268.326,34.1635,0,0.000885,0,0
0:1:41.011,273.076,34.7703,0,0.000885,0,0
0:1:42.592,277.591,35.3425,0,0.000885,0,0
0:1:44.187,282.226,35.9355,0,0.000885,0,0
0:1:45.787,286.038,36.4181,0,0.000885,0,0
0:1:47.388,290.673,37.0111,0,0.000885,0,0
0:1:48.999,295.246,37.5902,0,0.000885,0,0
0:1:50.597,300.233,38.2245,0,0.000885,0,0
0:1:52.187,303.751,38.6727,0,0.000885,0,0
0:1:53.791,307.973,39.2105,0,0.000885,0,0
0:1:55.390,312.723,39.8172,0,0.000885,0,0
0:1:56.990,317.123,40.3757,0,0.000885,0,0
0:1:58.592,321.406,40.9204,0,0.000885,0,0
0:2:0.198,325.921,41.4995,0,0.000885,0,0
0:2:1.788,330.2,42.0442,0,0.000885,0,0
0:2:3.396,334.542,42.5958,0,0.000885,0,0
0:2:5.001,338.941,43.1543,0,0.000885,0,0
0:2:6.594,343.398,43.7197,0,0.000885,0,0
0:2:8.195,348.265,44.3402,0,0.000885,0,0
0:2:9.795,353.015,44.9469,0,0.000885,0,0
0:2:11.396,356.89,45.4433,0,0.000885,0,0
0:2:12.994,360.875,45.9467,0,0.000885,0,0
0:2:14.598,364.981,46.4707,0,0.000885,0,0
0:2:16.187,369.674,47.0705,0,0.000885,0,0
0:2:17.789,375.012,47.7462,0,0.000885,0,0
0:2:19.398,378.472,48.1875,0,0.000885,0,0
0:2:20.995,382.814,48.739,0,0.000885,0,0
0:2:22.593,387.151,49.2906,0,0.000885,0,0
0:2:24.196,391.728,49.8767,0,0.000885,0,0
0:2:25.791,396.127,50.4351,0,0.000885,0,0
0:2:27.398,401.052,51.0626,0,0.000885,0,0
0:2:28.997,405.335,51.6073,0,0.000885,0,0
0:2:30.595,409.027,52.0761,0,0.000885,0,0
0:2:32.196,413.662,52.6691,0,0.000885,0,0
0:2:33.796,418.413,53.2758,0,0.000885,0,0
0:2:35.402,422.461,53.786,0,0.000885,0,0
0:2:36.991,427.269,54.3996,0,0.000885,0,0
0:2:38.599,431.082,54.8892,0,0.000885,0,0
0:2:40.201,435.597,55.4614,0,0.000885,0,0
0:2:41.794,440.174,56.0475,0,0.000885,0,0
0:2:43.394,445.392,56.7094,0,0.000885,0,0
0:2:45.001,449.146,57.1851,0,0.000885,0,0
0:2:46.590,452.78,57.6471,0,0.000885,0,0
0:2:48.194,457.766,58.2814,0,0.000885,0,0
0:2:49.804,462.517,58.8881,0,0.000885,0,0
0:2:51.402,466.094,59.3432,0,0.000885,0,0
0:2:52.999,471.374,60.0189,0,0.000885,0,0
0:2:54.605,475.595,60.5567,0,0.000885,0,0
0:2:56.194,479.701,61.0807,0,0.000885,0,0
0:2:57.795,484.451,61.6805,0,0.000885,0,0
0:2:59.404,488.384,62.1838,0,0.000885,0,0
0:3:1.002,493.192,62.7974,0,0.000885,0,0
0:3:2.601,497.298,63.3146,0,0.000885,0,0
0:3:4.206,501.933,63.9075,0,0.000885,0,0
0:3:5.801,505.976,64.4246,0,0.000885,0,0
0:3:7.389,510.26,64.9693,0,0.000885,0,0
0:3:9.003,515.011,65.576,0,0.000885,0,0
0:3:10.606,519.352,66.1276,0,0.000885,0,0
0:3:12.204,524.218,66.7481,0,0.000885,0,0
0:3:13.797,528.088,67.2377,0,0.000885,0,0
0:3:15.406,532.372,67.7824,0,0.000885,0,0
0:3:16.998,536.945,68.3684,0,0.000885,0,0
0:3:18.599,541.344,68.9269,0,0.000885,0,0
0:3:20.206,545.979,69.5129,0,0.000885,0,0
0:3:21.803,549.907,70.0163,0,0.000885,0,0
0:3:23.403,554.836,70.6437,0,0.000885,0,0
0:3:25.007,559.115,71.1884,0,0.000885,0,0
0:3:26.599,563.572,71.7537,0,0.000885,0,0
0:3:28.197,567.678,72.2777,0,0.000885,0,0
0:3:29.807,572.428,72.8845,0,0.000885,0,0
0:3:31.403,576.65,73.4223,0,0.000885,0,0
0:3:33.006,581.578,74.0497,0,0.000885,0,0
0:3:34.604,585.506,74.5461,0,0.000885,0,0
0:3:36.203,588.967,74.9874,0,0.000885,0,0
0:3:37.800,594.309,75.67,0,0.000885,0,0
0:3:39.414,598.419,76.194,0,0.000885,0,0
0:3:41.009,602.823,76.7524,0,0.000885,0,0
0:3:42.608,608.103,77.4281,0,0.000885,0,0
0:3:44.206,611.217,77.8211,0,0.000885,0,0
0:3:45.811,616.088,78.4417,0,0.000885,0,0
0:3:47.408,620.843,79.0484,0,0.000885,0,0
0:3:49.003,625.184,79.6,0,0.000885,0,0
0:3:50.617,629.352,80.1309,0,0.000885,0,0
0:3:52.204,633.347,80.6411,0,0.000885,0,0
0:3:53.808,637.924,81.2202,0,0.000885,0,0
0:3:55.411,642.443,81.7994,0,0.000885,0,0
0:3:57.009,646.669,82.3372,0,0.000885,0,0
0:3:58.609,651.718,82.9784,0,0.000885,0,0
0:4:0.221,656.064,83.53,0,0.000885,0,0
0:4:1.810,659.996,84.0333,0,0.000885,0,0
0:4:3.407,664.458,84.5987,0,0.000885,0,0
0:4:5.013,668.977,85.1778,0,0.000885,0,0
0:4:6.603,673.963,85.8121,0,0.000885,0,0
0:4:8.210,677.722,86.2879,0,0.000885,0,0
0:4:9.817,682.357,86.8808,0,0.000885,0,0
0:4:11.413,686.881,87.4531,0,0.000885,0,0
0:4:13.010,690.635,87.9357,0,0.000885,0,0
0:4:14.614,695.742,88.5838,0,0.000885,0,0
0:4:16.210,700.026,89.1285,0,0.000885,0,0
0:4:17.795,704.314,89.6732,0,0.000885,0,0
0:4:19.400,708.126,90.1627,0,0.000885,0,0
0:4:21.008,713.41,90.8315,0,0.000885,0,0
0:4:22.606,716.933,91.2797,0,0.000885,0,0
0:4:24.213,721.395,91.852,0,0.000885,0,0
0:4:25.813,726.444,92.4932,0,0.000885,0,0
0:4:27.410,730.549,93.0172,0,0.000885,0,0
0:4:29.016,734.717,93.5481,0,0.000885,0,0
0:4:30.623,739.121,94.1065,0,0.000885,0,0
0:4:32.211,743.467,94.6581,0,0.000885,0,0
0:4:33.809,748.218,95.2649,0,0.000885,0,0
0:4:35.423,752.563,95.8164,0,0.000885,0,0
0:4:37.009,756.731,96.3473,0,0.000885,0,0
0:4:38.602,760.957,96.8851,0,0.000885,0,0
0:4:40.217,765.241,97.4367,0,0.000885,0,0
0:4:41.807,769.645,97.9952,0,0.000885,0,0
0:4:43.415,774.458,98.6088,0,0.000885,0,0
0:4:45.021,778.804,99.1604,0,0.000885,0,0
0:4:46.616,783.439,99.7533,0,0.000885,0,0
0:4:48.200,787.784,100.305,0,0.000885,0,0
0:4:49.823,791.89,100.829,0,0.000885,0,0
0:4:51.411,796.53,101.415,0,0.000885,0,0
0:4:52.996,801.227,102.015,0,0.000885,0,0
0:4:54.616,805.275,102.532,0,0.000885,0,0
0:4:56.212,809.736,103.097,0,0.000885,0,0
0:4:57.818,814.434,103.697,0,0.000885,0,0
0:4:59.418,818.895,104.263,0,0.000885,0,0
0:5:1.016,822.765,104.759,0,0.000885,0,0
0:5:2.612,827.405,105.345,0,0.000885,0,0
0:5:4.221,832.04,105.938,0,0.000885,0,0
0:5:5.824,836.27,106.476,0,0.000885,0,0
0:5:7.413,840.26,106.986,0,0.000885,0,0
0:5:9.011,844.602,107.538,0,0.000885,0,0
0:5:10.622,849.708,108.186,0,0.000885,0,0
0:5:12.209,853.818,108.71,0,0.000885,0,0
0:5:13.819,858.631,109.323,0,0.000885,0,0
0:5:15.424,862.919,109.868,0,0.000885,0,0
0:5:17.012,866.38,110.309,0,0.000885,0,0
0:5:18.609,871.077,110.909,0,0.000885,0,0
0:5:20.220,875.245,111.44,0,0.000885,0,0
0:5:21.819,880.232,112.074,0,0.000885,0,0
0:5:23.416,884.756,112.653,0,0.000885,0,0
0:5:25.022,889.155,113.212,0,0.000885,0,0
0:5:26.616,893.559,113.77,0,0.000885,0,0
0:5:28.211,897.375,114.26,0,0.000885,0,0
0:5:29.820,902.304,114.887,0,0.000885,0,0
0:5:31.405,906.592,115.432,0,0.000885,0,0
0:5:33.014,910.524,115.928,0,0.000885,0,0
0:5:34.619,915.689,116.59,0,0.000885,0,0
0:5:36.213,919.327,117.052,0,0.000885,0,0
0:5:37.810,923.495,117.583,0,0.000885,0,0
0:5:39.419,928.544,118.224,0,0.000885,0,0
0:5:41.016,933.299,118.831,0,0.000885,0,0
0:5:42.613,936.938,119.293,0,0.000885,0,0
0:5:44.215,941.573,119.886,0,0.000885,0,0
0:5:45.820,945.977,120.445,0,0.000885,0,0
0:5:47.416,950.087,120.969,0,0.000885,0,0
0:5:49.012,954.428,121.52,0,0.000885,0,0
0:5:50.617,959.771,122.203,0,0.000885,0,0
0:5:52.214,963.529,122.678,0,0.000885,0,0
0:5:53.821,967.226,123.154,0,0.000885,0,0
0:5:55.432,971.629,123.713,0,0.000885,0,0
0:5:57.017,976.91,124.381,0,0.000885,0,0
0:5:58.613,981.843,125.009,0,0.000885,0,0
0:6:0.225,986.068,125.554,0,0.000885,0,0
0:6:1.814,990.414,126.105,0,0.000885,0,0
0:6:3.410,995.459,126.746,0,0.000885,0,0
0:6:5.026,999.275,127.229,0,0.000885,0,0
0:6:6.621,1003.62,127.787,0,0.000885,0,0
0:6:8.218,1008.08,128.353,0,0.000885,0,0
0:6:9.833,1011.84,128.829,0,0.000885,0,0
0:6:11.424,1016.65,129.442,0,0.000885,0,0
0:6:13.019,1020.82,129.973,0,0.000885,0,0
0:6:14.624,1024.93,130.497,0,0.000885,0,0
0:6:15.582,1026.34,130.676,0,0.000885,0,0

File: DataFile2021-07-28_101506.csv
Test ID:,Date Tested:,Time:,Test Type:,Diameter Avg. (mm):,Cyl. Corr. Factor:,Height (mm):,Age (days):,Weight (kN):,Break Type:,Ramp Rate (MPa/s):,Load at Break (kN):,Stress at Break (MPa):
12,7/28/2021,10:15,Cylinder,100,1,200,0,13.69,3,0.35,1289.54,164.19
Sample Time,Load (kN),Stress (MPa),Long. Strain,Trans. Strain,Chan1 Deflection (mm),Chan2 Deflection (mm)
0:0:13.915,6.57002,0.834266,0,0.000885,0,0
0:0:15.901,10.6179,1.35137,0,0.000885,0,0
0:0:17.888,15.075,1.91674,0,0.000885,0,0
0:0:19.889,21.0534,2.68206,0,0.000885,0,0
0:0:21.895,27.0986,3.44738,0,0.000885,0,0
0:0:23.885,32.9035,4.19201,0,0.000885,0,0
0:0:25.900,38.357,4.88149,0,0.000885,0,0
0:0:27.889,43.2234,5.50202,0,0.000885,0,0
0:0:29.897,49.0327,6.23976,0,0.000885,0,0
0:0:31.891,54.7798,6.97749,0,0.000885,0,0
0:0:33.883,60.3535,7.68076,0,0.000885,0,0
0:0:35.897,65.8648,8.38402,0,0.000885,0,0
0:0:37.887,70.8513,9.01834,0,0.000885,0,0
0:0:39.890,76.5984,9.75608,0,0.000885,0,0
0:0:41.893,81.9941,10.4387,0,0.000885,0,0
0:0:43.883,87.2118,11.1075,0,0.000885,0,0
0:0:45.897,93.4304,11.8935,0,0.000885,0,0
0:0:47.885,98.6482,12.5622,0,0.000885,0,0
0:0:49.892,104.106,13.2517,0,0.000885,0,0
0:0:51.891,109.618,13.955,0,0.000885,0,0
0:0:53.882,115.485,14.7065,0,0.000885,0,0
0:0:55.896,120.996,15.4029,0,0.000885,0,0
0:0:57.886,125.925,16.0303,0,0.000885,0,0
0:0:59.895,131.903,16.7956,0,0.000885,0,0
0:1:1.902,137.299,17.4851,0,0.000885,0,0
0:1:3.892,141.876,18.0643,0,0.000885,0,0
0:1:5.907,148.562,18.9123,0,0.000885,0,0
0:1:7.894,152.903,19.4708,0,0.000885,0,0
0:1:9.903,159.18,20.2637,0,0.000885,0,0
0:1:11.905,164.575,20.9532,0,0.000885,0,0
0:1:13.897,169.909,21.6357,0,0.000885,0,0
0:1:15.912,176.07,22.4149,0,0.000885,0,0
0:1:17.902,180.994,23.0423,0,0.000885,0,0
0:1:19.903,186.509,23.7455,0,0.000885,0,0
0:1:21.909,192.608,24.5247,0,0.000885,0,0
0:1:23.884,197.417,25.1383,0,0.000885,0,0
0:1:25.887,203.164,25.8691,0,0.000885,0,0
0:1:27.870,208.559,26.5517,0,0.000885,0,0
0:1:29.874,214.249,27.2826,0,0.000885,0,0
0:1:31.876,219.177,27.9031,0,0.000885,0,0
0:1:33.872,224.924,28.6408,0,0.000885,0,0
0:1:35.873,230.907,29.3992,0,0.000885,0,0
0:1:37.879,235.951,30.0405,0,0.000885,0,0
0:1:39.888,241.934,30.8058,0,0.000885,0,0
0:1:41.887,246.334,31.3643,0,0.000885,0,0
0:1:43.880,252.548,32.1571,0,0.000885,0,0
0:1:45.893,258.064,32.8604,0,0.000885,0,0
0:1:47.887,263.281,33.5223,0,0.000885,0,0
0:1:49.890,269.206,34.2738,0,0.000885,0,0
0:1:51.888,273.721,34.853,0,0.000885,0,0
0:1:53.884,280.349,35.6942,0,0.000885,0,0
0:1:55.882,285.861,36.3974,0,0.000885,0,0
0:1:57.877,291.025,37.0524,0,0.000885,0,0
0:1:59.877,296.007,37.6867,0,0.000885,0,0
0:2:1.880,301.523,38.39,0,0.000885,0,0
0:2:3.874,307.741,39.1829,0,0.000885,0,0
0:2:5.889,312.901,39.8379,0,0.000885,0,0
0:2:7.874,318.297,40.5274,0,0.000885,0,0
0:2:9.888,323.105,41.141,0,0.000885,0,0
0:2:11.878,328.91,41.8788,0,0.000885,0,0
0:2:13.875,334.542,42.5958,0,0.000885,0,0
0:2:15.883,340.115,43.306,0,0.000885,0,0
0:2:17.876,345.218,43.9541,0,0.000885,0,0
0:2:19.891,350.907,44.678,0,0.000885,0,0
0:2:21.882,357.535,45.5192,0,0.000885,0,0
0:2:23.866,362.579,46.1673,0,0.000885,0,0
0:2:25.875,367.503,46.7947,0,0.000885,0,0
0:2:27.875,372.957,47.4842,0,0.000885,0,0
0:2:29.895,378.997,48.2564,0,0.000885,0,0
0:2:31.883,384.687,48.9804,0,0.000885,0,0
0:2:33.890,389.967,49.6491,0,0.000885,0,0
0:2:35.898,394.775,50.2628,0,0.000885,0,0
0:2:37.870,400.878,51.0419,0,0.000885,0,0
0:2:39.874,406.741,51.7865,0,0.000885,0,0
0:2:41.857,411.785,52.4277,0,0.000885,0,0
0:2:43.834,417.003,53.0965,0,0.000885,0,0
0:2:45.836,422.461,53.786,0,0.000885,0,0
0:2:47.813,427.972,54.4893,0,0.000885,0,0
0:2:49.797,433.604,55.2063,0,0.000885,0,0
0:2:51.797,438.999,55.8958,0,0.000885,0,0
0:2:53.791,444.689,56.6197,0,0.000885,0,0
0:2:55.791,450.258,57.3299,0,0.000885,0,0
0:2:57.797,455.832,58.0401,0,0.000885,0,0
0:2:59.802,460.934,58.6882,0,0.000885,0,0
0:3:1.789,466.449,59.3914,0,0.000885,0,0
0:3:3.779,472.312,60.1361,0,0.000885,0,0
0:3:5.787,477.944,60.8531,0,0.000885,0,0
0:3:7.796,482.574,61.4461,0,0.000885,0,0
0:3:9.779,488.384,62.1838,0,0.000885,0,0
0:3:11.792,493.779,62.8664,0,0.000885,0,0
0:3:13.786,499.117,63.549,0,0.000885,0,0
0:3:15.788,505.158,64.3212,0,0.000885,0,0
0:3:17.784,510.496,64.9969,0,0.000885,0,0
0:3:19.782,515.713,65.6657,0,0.000885,0,0
0:3:21.789,521.225,66.362,0,0.000885,0,0
0:3:23.765,527.034,67.1067,0,0.000885,0,0
0:3:25.766,532.603,67.8168,0,0.000885,0,0
0:3:27.740,537.999,68.4994,0,0.000885,0,0
0:3:29.734,543.688,69.2234,0,0.000885,0,0
0:3:31.720,548.968,69.899,0,0.000885,0,0
0:3:33.698,554.658,70.623,0,0.000885,0,0
0:3:35.712,559.818,71.278,0,0.000885,0,0
0:3:37.695,565.04,71.9399,0,0.000885,0,0
0:3:39.680,570.729,72.6707,0,0.000885,0,0
0:3:41.702,576.067,73.3464,0,0.000885,0,0
0:3:43.685,581.988,74.098,0,0.000885,0,0
0:3:45.703,587.325,74.7805,0,0.000885,0,0
0:3:47.686,592.668,75.4631,0,0.000885,0,0
0:3:49.686,598.299,76.1802,0,0.000885,0,0
0:3:51.692,603.762,76.8765,0,0.000885,0,0
0:3:53.688,609.277,77.5729,0,0.000885,0,0
0:3:55.719,614.62,78.2555,0,0.000885,0,0
0:3:57.704,620.549,79.0139,0,0.000885,0,0
0:3:59.702,625.771,79.6758,0,0.000885,0,0
0:4:1.702,631.523,80.4067,0,0.000885,0,0
0:4:3.683,636.572,81.0479,0,0.000885,0,0
0:4:5.690,642.034,81.7442,0,0.000885,0,0
0:4:7.676,647.256,82.413,0,0.000885,0,0
0:4:9.676,652.892,83.1301,0,0.000885,0,0
0:4:11.682,658.822,83.8816,0,0.000885,0,0
0:4:13.677,664.044,84.5504,0,0.000885,0,0
0:4:15.699,669.795,85.2813,0,0.000885,0,0
0:4:17.691,675.551,86.0121,0,0.000885,0,0
0:4:19.694,680.831,86.6878,0,0.000885,0,0
0:4:21.702,686.289,87.3842,0,0.000885,0,0
0:4:23.684,691.338,88.0254,0,0.000885,0,0
0:4:25.696,697.094,88.7562,0,0.000885,0,0
0:4:27.692,703.255,89.5422,0,0.000885,0,0
0:4:29.691,708.068,90.1558,0,0.000885,0,0
0:4:31.703,713.762,90.8798,0,0.000885,0,0
0:4:33.695,719.34,91.59,0,0.000885,0,0
0:4:35.716,724.331,92.2243,0,0.000885,0,0
0:4:37.703,729.904,92.9344,0,0.000885,0,0
0:4:39.708,735.54,93.6515,0,0.000885,0,0
0:4:41.711,741.35,94.3892,0,0.000885,0,0
0:4:43.693,746.398,95.0373,0,0.000885,0,0
0:4:45.705,751.918,95.7337,0,0.000885,0,0
0:4:47.689,757.612,96.4645,0,0.000885,0,0
0:4:49.698,762.834,97.1264,0,0.000885,0,0
0:4:51.693,768.528,97.8504,0,0.000885,0,0
0:4:53.696,773.986,98.5468,0,0.000885,0,0
0:4:55.710,779.506,99.25,0,0.000885,0,0
0:4:57.695,785.258,99.9809,0,0.000885,0,0
0:4:59.691,790.6,100.663,0,0.000885,0,0
0:5:1.689,796.236,101.381,0,0.000885,0,0
0:5:3.673,801.694,102.077,0,0.000885,0,0
0:5:5.682,806.916,102.739,0,0.000885,0,0
0:5:7.668,812.201,103.414,0,0.000885,0,0
0:5:9.669,817.837,104.132,0,0.000885,0,0
0:5:11.664,823.53,104.855,0,0.000885,0,0
0:5:13.649,829.46,105.607,0,0.000885,0,0
0:5:15.662,834.566,106.262,0,0.000885,0,0
0:5:17.646,840.26,106.986,0,0.000885,0,0
0:5:19.641,845.66,107.675,0,0.000885,0,0
0:5:21.641,850.94,108.344,0,0.000885,0,0
0:5:23.625,856.403,109.041,0,0.000885,0,0
0:5:25.634,862.154,109.771,0,0.000885,0,0
0:5:27.619,867.732,110.482,0,0.000885,0,0
0:5:29.618,873.19,111.178,0,0.000885,0,0
0:5:31.615,878.003,111.792,0,0.000885,0,0
0:5:33.609,883.581,112.502,0,0.000885,0,0
0:5:35.619,889.569,113.26,0,0.000885,0,0
0:5:37.601,895.027,113.957,0,0.000885,0,0
0:5:39.626,900.663,114.674,0,0.000885,0,0
0:5:41.616,905.355,115.273,0,0.000885,0,0
0:5:43.600,911.814,116.094,0,0.000885,0,0
0:5:45.611,916.979,116.756,0,0.000885,0,0
0:5:47.606,923.024,117.521,0,0.000885,0,0
0:5:49.614,927.428,118.087,0,0.000885,0,0
0:5:51.609,933.357,118.838,0,0.000885,0,0
0:5:53.602,938.993,119.555,0,0.000885,0,0
0:5:55.614,944.273,120.231,0,0.000885,0,0
0:5:57.606,949.967,120.955,0,0.000885,0,0
0:5:59.629,955.251,121.624,0,0.000885,0,0
0:6:1.621,960.709,122.32,0,0.000885,0,0
0:6:3.607,966.523,123.065,0,0.000885,0,0
0:6:5.618,971.861,123.74,0,0.000885,0,0
0:6:7.602,977.675,124.478,0,0.000885,0,0
0:6:9.608,982.194,125.057,0,0.000885,0,0
0:6:11.617,988.591,125.871,0,0.000885,0,0
0:6:13.619,993.581,126.505,0,0.000885,0,0
0:6:15.627,999.275,127.229,0,0.000885,0,0
0:6:17.612,1004.27,127.87,0,0.000885,0,0
0:6:19.612,1010.25,128.629,0,0.000885,0,0
0:6:21.604,1015.6,129.311,0,0.000885,0,0
0:6:23.590,1021.29,130.035,0,0.000885,0,0
0:6:25.601,1027.45,130.821,0,0.000885,0,0
0:6:27.594,1031.68,131.359,0,0.000885,0,0
0:6:29.617,1038.01,132.166,0,0.000885,0,0
0:6:31.618,1043.48,132.862,0,0.000885,0,0
0:6:33.610,1048.46,133.496,0,0.000885,0,0
0:6:35.621,1054.81,134.303,0,0.000885,0,0
0:6:37.606,1060.21,134.992,0,0.000885,0,0
0:6:39.618,1065.02,135.599,0,0.000885,0,0
0:6:41.611,1071.24,136.392,0,0.000885,0,0
0:6:43.618,1076.82,137.102,0,0.000885,0,0
0:6:45.629,1082.04,137.771,0,0.000885,0,0
0:6:47.625,1087.21,138.426,0,0.000885,0,0
0:6:49.631,1092.9,139.15,0,0.000885,0,0
0:6:51.632,1098.54,139.867,0,0.000885,0,0
0:6:53.616,1103.82,140.543,0,0.000885,0,0
0:6:55.626,1109.69,141.287,0,0.000885,0,0
0:6:57.609,1114.56,141.908,0,0.000885,0,0
0:6:59.624,1120.49,142.666,0,0.000885,0,0
0:7:1.623,1123.83,143.094,0,0.000885,0,0
0:7:3.605,1132.35,144.176,0,0.000885,0,0
0:7:5.614,1137.63,144.845,0,0.000885,0,0
0:7:7.622,1143.09,145.541,0,0.000885,0,0
0:7:9.625,1147.84,146.148,0,0.000885,0,0
0:7:11.620,1154.12,146.948,0,0.000885,0,0
0:7:13.612,1158.47,147.5,0,0.000885,0,0
0:7:15.633,1163.75,148.175,0,0.000885,0,0
0:7:17.618,1169.68,148.927,0,0.000885,0,0
0:7:19.623,1175.73,149.699,0,0.000885,0,0
0:7:21.622,1181.48,150.43,0,0.000885,0,0
0:7:23.604,1185.88,150.988,0,0.000885,0,0
0:7:25.627,1191.75,151.74,0,0.000885,0,0
0:7:27.610,1197.68,152.491,0,0.000885,0,0
0:7:29.613,1202.02,153.043,0,0.000885,0,0
0:7:31.613,1208.48,153.87,0,0.000885,0,0
0:7:33.606,1213.64,154.525,0,0.000885,0,0
0:7:35.615,1219.63,155.291,0,0.000885,0,0
0:7:37.598,1224.09,155.856,0,0.000885,0,0
0:7:39.596,1229.67,156.566,0,0.000885,0,0
0:7:41.597,1235.66,157.331,0,0.000885,0,0
0:7:43.581,1241.59,158.083,0,0.000885,0,0
0:7:45.591,1246.69,158.731,0,0.000885,0,0
0:7:47.573,1251.56,159.352,0,0.000885,0,0
0:7:49.576,1258.14,160.193,0,0.000885,0,0
0:7:51.567,1263.6,160.889,0,0.000885,0,0
0:7:53.556,1268.17,161.468,0,0.000885,0,0
0:7:55.565,1271.23,161.854,0,0.000885,0,0
0:7:57.549,1279.8,162.951,0,0.000885,0,0
0:7:59.542,1286.26,163.771,0,0.000885,0,0
0:8:1.538,1285.67,163.695,0,0.000885,0,0
0:8:1.924,1235.42,157.297,0,0.000885,0,0