Folder: Experiment-Files (part 82)

File: DataFile2021-07-17_054218.csv
Test ID:,Date Tested:,Time:,Test Type:,Diameter Avg. (mm):,Cyl. Corr. Factor:,Height (mm):,Age (days):,Weight (kN):,Break Type:,Ramp Rate (MPa/s):,Load at Break (kN):,Stress at Break (MPa):
12,7/17/2021,05:42,Cylinder,100,1,200,0,3.6,3,0.25,727.85,92.67
Sample Time,Load (kN),Stress (MPa),Long. Strain,Trans. Strain,Chan1 Deflection (mm),Chan2 Deflection (mm)
0:0:8.900,5.80493,0.737739,0,0.000885,0,0
0:0:10.489,7.91783,1.00663,0,0.000885,0,0
0:0:12.080,11.085,1.41343,0,0.000885,0,0
0:0:13.668,14.3678,1.82711,0,0.000885,0,0
0:0:15.279,17.2413,2.19253,0,0.000885,0,0
0:0:16.873,20.7643,2.64069,0,0.000885,0,0
0:0:18.466,23.8692,3.04059,0,0.000885,0,0
0:0:20.079,27.6813,3.52322,0,0.000885,0,0
0:0:21.678,29.9721,3.8128,0,0.000885,0,0
0:0:23.269,33.0191,4.2058,0,0.000885,0,0
0:0:24.876,36.8891,4.69533,0,0.000885,0,0
0:0:26.482,39.8249,5.06765,0,0.000885,0,0
0:0:28.077,43.1655,5.49512,0,0.000885,0,0
0:0:29.681,45.6299,5.81228,0,0.000885,0,0
0:0:31.285,49.5576,6.3087,0,0.000885,0,0
0:0:32.875,52.1421,6.63965,0,0.000885,0,0
0:0:34.477,55.0156,7.00507,0,0.000885,0,0
0:0:36.086,58.9434,7.50839,0,0.000885,0,0
0:0:37.682,61.6435,7.84623,0,0.000885,0,0
0:0:39.275,64.9262,8.26681,0,0.000885,0,0
0:0:40.895,68.0355,8.65982,0,0.000885,0,0
0:0:42.486,70.6733,8.99766,0,0.000885,0,0
0:0:44.078,73.9561,9.41824,0,0.000885,0,0
0:0:45.692,77.4168,9.8595,0,0.000885,0,0
0:0:47.286,80.3527,10.2318,0,0.000885,0,0
0:0:48.879,83.8134,10.6731,0,0.000885,0,0
0:0:50.497,86.9805,11.073,0,0.000885,0,0
0:0:52.091,89.5027,11.397,0,0.000885,0,0
0:0:53.686,92.9589,11.8383,0,0.000885,0,0
0:0:55.298,96.4819,12.2865,0,0.000885,0,0
0:0:56.896,99.8225,12.707,0,0.000885,0,0
0:0:58.486,102.638,13.0656,0,0.000885,0,0
0:1:0.099,105.805,13.4724,0,0.000885,0,0
0:1:1.702,108.737,13.8447,0,0.000885,0,0
0:1:3.296,112.024,14.2653,0,0.000885,0,0
0:1:4.899,114.777,14.6169,0,0.000885,0,0
0:1:6.516,118.59,15.0995,0,0.000885,0,0
0:1:8.124,121.054,15.4098,0,0.000885,0,0
0:1:9.748,124.515,15.851,0,0.000885,0,0
0:1:11.359,128.091,16.3061,0,0.000885,0,0
0:1:12.955,130.262,16.5888,0,0.000885,0,0
0:1:14.547,133.429,16.9887,0,0.000885,0,0
0:1:16.163,136.89,17.4299,0,0.000885,0,0
0:1:17.752,140.35,17.8712,0,0.000885,0,0
0:1:19.345,143.869,18.3194,0,0.000885,0,0
0:1:20.964,146.685,18.6779,0,0.000885,0,0
0:1:22.558,149.967,19.0916,0,0.000885,0,0
0:1:24.151,152.961,19.4777,0,0.000885,0,0
0:1:25.770,155.95,19.8569,0,0.000885,0,0
0:1:27.363,159.295,20.2844,0,0.000885,0,0
0:1:28.955,162.578,20.6981,0,0.000885,0,0
0:1:30.565,165.1,21.0221,0,0.000885,0,0
0:1:32.159,168.797,21.491,0,0.000885,0,0
0:1:33.753,171.199,21.8012,0,0.000885,0,0
0:1:35.363,174.659,22.2356,0,0.000885,0,0
0:1:36.965,177.947,22.6562,0,0.000885,0,0
0:1:38.559,180.82,23.0216,0,0.000885,0,0
0:1:40.169,184.161,23.4491,0,0.000885,0,0
0:1:41.768,187.212,23.8352,0,0.000885,0,0
0:1:43.358,190.379,24.242,0,0.000885,0,0
0:1:44.961,193.547,24.6419,0,0.000885,0,0
0:1:46.548,196.772,25.0555,0,0.000885,0,0
0:1:48.139,199.765,25.4348,0,0.000885,0,0
0:1:49.741,203.048,25.8553,0,0.000885,0,0
0:1:51.335,206.273,26.2621,0,0.000885,0,0
0:1:52.944,209.618,26.6896,0,0.000885,0,0
0:1:54.533,212.198,27.0206,0,0.000885,0,0
0:1:56.139,215.952,27.4963,0,0.000885,0,0
0:1:57.738,219.293,27.9238,0,0.000885,0,0
0:1:59.325,222.166,28.2892,0,0.000885,0,0
0:2:0.923,224.573,28.5926,0,0.000885,0,0
0:2:2.500,227.682,28.9925,0,0.000885,0,0
0:2:4.081,231.201,29.4406,0,0.000885,0,0
0:2:5.689,234.897,29.9095,0,0.000885,0,0
0:2:7.271,237.593,30.2542,0,0.000885,0,0
0:2:8.851,240.231,30.5851,0,0.000885,0,0
0:2:10.450,243.811,31.0402,0,0.000885,0,0
0:2:12.043,246.685,31.4056,0,0.000885,0,0
0:2:13.632,249.674,31.7917,0,0.000885,0,0
0:2:15.241,253.371,32.2606,0,0.000885,0,0
0:2:16.846,256.48,32.6536,0,0.000885,0,0
0:2:18.433,259.411,33.0259,0,0.000885,0,0
0:2:20.032,262.107,33.3706,0,0.000885,0,0
0:2:21.641,266.039,33.8739,0,0.000885,0,0
0:2:23.231,268.504,34.1842,0,0.000885,0,0
0:2:24.825,271.844,34.6117,0,0.000885,0,0
0:2:26.425,275.247,35.0461,0,0.000885,0,0
0:2:28.022,277.943,35.3908,0,0.000885,0,0
0:2:29.613,281.23,35.8045,0,0.000885,0,0
0:2:31.211,284.046,36.163,0,0.000885,0,0
0:2:32.794,288.031,36.6732,0,0.000885,0,0
0:2:34.383,290.553,36.9973,0,0.000885,0,0
0:2:35.981,293.547,37.3765,0,0.000885,0,0
0:2:37.561,296.363,37.735,0,0.000885,0,0
0:2:39.147,299.997,38.197,0,0.000885,0,0
0:2:40.749,303.106,38.59,0,0.000885,0,0
0:2:42.349,306.509,39.0243,0,0.000885,0,0
0:2:43.936,309.441,39.3966,0,0.000885,0,0
0:2:45.540,312.492,39.7896,0,0.000885,0,0
0:2:47.131,316.184,40.2585,0,0.000885,0,0
0:2:48.715,318.884,40.6032,0,0.000885,0,0
0:2:50.321,321.931,40.9893,0,0.000885,0,0
0:2:51.931,324.925,41.3685,0,0.000885,0,0
0:2:53.521,328.034,41.7684,0,0.000885,0,0
0:2:55.121,331.553,42.2166,0,0.000885,0,0
0:2:56.706,334.19,42.5475,0,0.000885,0,0
0:2:58.287,337.18,42.9337,0,0.000885,0,0
0:2:59.884,340.231,43.3198,0,0.000885,0,0
0:3:1.472,344.221,43.83,0,0.000885,0,0
0:3:3.053,347.326,44.223,0,0.000885,0,0
0:3:4.654,350.671,44.6504,0,0.000885,0,0
0:3:6.239,353.251,44.9745,0,0.000885,0,0
0:3:7.850,356.303,45.3675,0,0.000885,0,0
0:3:9.440,359.763,45.8088,0,0.000885,0,0
0:3:11.046,362.752,46.188,0,0.000885,0,0
0:3:12.632,365.51,46.5396,0,0.000885,0,0
0:3:14.217,369.145,47.0016,0,0.000885,0,0
0:3:15.815,371.902,47.3532,0,0.000885,0,0
0:3:17.397,375.421,47.8014,0,0.000885,0,0
0:3:18.984,377.707,48.0909,0,0.000885,0,0
0:3:20.583,380.995,48.5115,0,0.000885,0,0
0:3:22.174,384.277,48.9252,0,0.000885,0,0
0:3:23.756,388.032,49.4078,0,0.000885,0,0
0:3:25.362,390.438,49.7112,0,0.000885,0,0
0:3:26.954,393.837,50.1456,0,0.000885,0,0
0:3:28.543,396.71,50.511,0,0.000885,0,0
0:3:30.156,400.585,51.0005,0,0.000885,0,0
0:3:31.750,403.044,51.3177,0,0.000885,0,0
0:3:33.338,406.212,51.7176,0,0.000885,0,0
0:3:34.944,409.147,52.0968,0,0.000885,0,0
0:3:36.545,412.43,52.5105,0,0.000885,0,0
0:3:38.124,415.891,52.9517,0,0.000885,0,0
0:3:39.715,419.409,53.3999,0,0.000885,0,0
0:3:41.309,422.399,53.7791,0,0.000885,0,0
0:3:42.889,425.214,54.1376,0,0.000885,0,0
0:3:44.486,428.15,54.5168,0,0.000885,0,0
0:3:46.073,430.788,54.8478,0,0.000885,0,0
0:3:47.653,434.191,55.2822,0,0.000885,0,0
0:3:49.252,438.061,55.7786,0,0.000885,0,0
0:3:50.859,441.522,56.213,0,0.000885,0,0
0:3:52.447,444.689,56.6197,0,0.000885,0,0
0:3:54.028,447.62,56.9921,0,0.000885,0,0
0:3:55.634,449.906,57.2816,0,0.000885,0,0
0:3:57.215,452.9,57.6677,0,0.000885,0,0
0:3:58.799,456.654,58.1435,0,0.000885,0,0
0:4:0.402,459.644,58.5227,0,0.000885,0,0
0:4:1.982,462.459,58.8812,0,0.000885,0,0
0:4:3.561,465.626,59.288,0,0.000885,0,0
0:4:5.170,468.616,59.6672,0,0.000885,0,0
0:4:6.749,472.548,60.1637,0,0.000885,0,0
0:4:8.341,475.128,60.4946,0,0.000885,0,0
0:4:9.940,478.882,60.9703,0,0.000885,0,0
0:4:11.538,481.462,61.3013,0,0.000885,0,0
0:4:13.146,484.629,61.7081,0,0.000885,0,0
0:4:14.760,487.681,62.0942,0,0.000885,0,0
0:4:16.359,490.728,62.4803,0,0.000885,0,0
0:4:17.939,493.895,62.8871,0,0.000885,0,0
0:4:19.557,496.711,63.2456,0,0.000885,0,0
0:4:21.142,498.939,63.5283,0,0.000885,0,0
0:4:22.723,502.929,64.0316,0,0.000885,0,0
0:4:24.314,506.506,64.4936,0,0.000885,0,0
0:4:25.913,510.554,65.0038,0,0.000885,0,0
0:4:27.493,513.721,65.4106,0,0.000885,0,0
0:4:29.083,516.416,65.7553,0,0.000885,0,0
0:4:30.677,518.765,66.0518,0,0.000885,0,0
0:4:32.255,522.163,66.4861,0,0.000885,0,0
0:4:33.864,525.566,66.9205,0,0.000885,0,0
0:4:35.462,528.791,67.3273,0,0.000885,0,0
0:4:37.061,532.021,67.741,0,0.000885,0,0
0:4:38.661,534.481,68.0513,0,0.000885,0,0
0:4:40.265,537.883,68.4856,0,0.000885,0,0
0:4:41.861,540.993,68.8786,0,0.000885,0,0
0:4:43.460,543.751,69.2303,0,0.000885,0,0
0:4:45.067,547.385,69.6922,0,0.000885,0,0
0:4:46.660,550.61,70.1059,0,0.000885,0,0
0:4:48.259,553.955,70.5334,0,0.000885,0,0
0:4:49.860,556.593,70.8643,0,0.000885,0,0
0:4:51.443,560.169,71.3263,0,0.000885,0,0
0:4:53.043,563.105,71.6986,0,0.000885,0,0
0:4:54.639,566.152,72.0847,0,0.000885,0,0
0:4:56.259,569.733,72.5397,0,0.000885,0,0
0:4:57.860,572.722,72.919,0,0.000885,0,0
0:4:59.468,575.711,73.3051,0,0.000885,0,0
0:5:1.057,578.878,73.705,0,0.000885,0,0
0:5:2.658,581.988,74.098,0,0.000885,0,0
0:5:4.271,585.039,74.491,0,0.000885,0,0
0:5:5.859,588.558,74.9391,0,0.000885,0,0
0:5:7.453,591.2,75.277,0,0.000885,0,0
0:5:9.070,594.661,75.7113,0,0.000885,0,0
0:5:10.673,597.423,76.063,0,0.000885,0,0
0:5:12.261,600.59,76.4698,0,0.000885,0,0
0:5:13.870,603.704,76.8628,0,0.000885,0,0
0:5:15.475,607.049,77.2902,0,0.000885,0,0
0:5:17.061,609.571,77.6143,0,0.000885,0,0
0:5:18.668,613.036,78.0555,0,0.000885,0,0
0:5:20.275,616.555,78.5037,0,0.000885,0,0
0:5:21.864,619.49,78.876,0,0.000885,0,0
0:5:23.460,622.778,79.2966,0,0.000885,0,0
0:5:25.074,626.479,79.7654,0,0.000885,0,0
0:5:26.662,628.765,80.055,0,0.000885,0,0
0:5:28.272,632.346,80.5101,0,0.000885,0,0
0:5:29.878,635.397,80.9031,0,0.000885,0,0
0:5:31.472,638.217,81.2616,0,0.000885,0,0
0:5:33.067,641.914,81.7305,0,0.000885,0,0
0:5:34.676,644.672,82.0821,0,0.000885,0,0
0:5:36.263,647.901,82.4958,0,0.000885,0,0
0:5:37.861,650.779,82.8612,0,0.000885,0,0
0:5:39.478,654.596,83.3438,0,0.000885,0,0
0:5:41.073,657.469,83.7092,0,0.000885,0,0
0:5:42.669,660.521,84.1022,0,0.000885,0,0
0:5:44.277,663.577,84.4884,0,0.000885,0,0
0:5:45.880,667.038,84.9296,0,0.000885,0,0
0:5:47.467,669.68,85.2675,0,0.000885,0,0
0:5:49.076,673.261,85.7225,0,0.000885,0,0
0:5:50.673,676.018,86.0741,0,0.000885,0,0
0:5:52.270,679.364,86.5016,0,0.000885,0,0
0:5:53.875,682.184,86.8602,0,0.000885,0,0
0:5:55.478,685.529,87.2807,0,0.000885,0,0
0:5:57.066,688.696,87.6875,0,0.000885,0,0
0:5:58.671,691.632,88.0598,0,0.000885,0,0
0:6:0.286,695.27,88.5218,0,0.000885,0,0
0:6:1.873,697.739,88.8389,0,0.000885,0,0
0:6:3.469,701.2,89.2802,0,0.000885,0,0
0:6:5.079,704.429,89.6939,0,0.000885,0,0
0:6:6.667,707.423,90.0731,0,0.000885,0,0
0:6:8.266,710.826,90.5075,0,0.000885,0,0
0:6:9.881,714.055,90.9143,0,0.000885,0,0
0:6:11.467,716.813,91.2659,0,0.000885,0,0
0:6:13.073,719.162,91.5693,0,0.000885,0,0
0:6:14.680,723.036,92.0588,0,0.000885,0,0
0:6:16.270,726.088,92.4518,0,0.000885,0,0
0:6:17.865,727.089,92.5759,0,0.000885,0,0
0:6:19.479,635.753,80.9445,0,0.000885,0,0
0:6:21.072,623.543,79.3931,0,0.000885,0,0
0:6:22.675,614.735,78.2693,0,0.000885,0,0
0:6:24.280,601.293,76.5594,0,0.000885,0,0
0:6:25.871,573.545,73.0224,0,0.000885,0,0
0:6:26.068,565.276,71.9744,0,0.000885,0,0

File: DataFile2021-07-17_055727.csv
Test ID:,Date Tested:,Time:,Test Type:,Diameter Avg. (mm):,Cyl. Corr. Factor:,Height (mm):,Age (days):,Weight (kN):,Break Type:,Ramp Rate (MPa/s):,Load at Break (kN):,Stress at Break (MPa):
12,7/17/2021,05:57,Cylinder,100,1,200,0,3.6,3,0.2,330.2,42.04
Sample Time,Load (kN),Stress (MPa),Long. Strain,Trans. Strain,Chan1 Deflection (mm),Chan2 Deflection (mm)
0:0:6.701,5.8672,0.744634,0,0.000885,0,0
0:0:7.593,7.27284,0.923897,0,0.000885,0,0
0:0:8.488,8.26924,1.0549,0,0.000885,0,0
0:0:9.388,10.0886,1.28242,0,0.000885,0,0
0:0:10.280,11.2629,1.43411,0,0.000885,0,0
0:0:11.181,13.3714,1.70301,0,0.000885,0,0
0:0:12.081,15.7778,2.00637,0,0.000885,0,0
0:0:12.989,17.0678,2.17185,0,0.000885,0,0
0:0:13.889,18.6514,2.3718,0,0.000885,0,0
0:0:14.784,21.4093,2.72343,0,0.000885,0,0
0:0:15.682,22.7571,2.8958,0,0.000885,0,0
0:0:16.588,25.3371,3.22675,0,0.000885,0,0
0:0:17.491,26.9206,3.42669,0,0.000885,0,0
0:0:18.402,28.74,3.66112,0,0.000885,0,0
0:0:19.298,30.0299,3.82659,0,0.000885,0,0
0:0:20.196,31.4934,4.01275,0,0.000885,0,0
0:0:21.089,33.3127,4.24028,0,0.000885,0,0
0:0:21.982,34.8963,4.44022,0,0.000885,0,0
0:0:22.894,37.245,4.74359,0,0.000885,0,0
0:0:23.803,39.0598,4.97112,0,0.000885,0,0
0:0:24.696,40.5277,5.15728,0,0.000885,0,0
0:0:25.590,42.3471,5.3917,0,0.000885,0,0
0:0:26.487,44.1041,5.61233,0,0.000885,0,0
0:0:27.395,45.5142,5.7916,0,0.000885,0,0
0:0:28.302,47.3914,6.03291,0,0.000885,0,0
0:0:29.197,49.7934,6.34318,0,0.000885,0,0
0:0:30.095,51.377,6.54312,0,0.000885,0,0
0:0:30.992,53.0184,6.74997,0,0.000885,0,0
0:0:31.885,54.0192,6.88097,0,0.000885,0,0
0:0:32.797,56.4791,7.19123,0,0.000885,0,0
0:0:33.703,58.3562,7.43255,0,0.000885,0,0
0:0:34.599,59.882,7.6256,0,0.000885,0,0
0:0:35.494,61.937,7.8876,0,0.000885,0,0
0:0:36.386,63.5784,8.09445,0,0.000885,0,0
0:0:37.289,65.6291,8.35645,0,0.000885,0,0
0:0:38.199,67.2705,8.56329,0,0.000885,0,0
0:0:39.103,68.5026,8.72187,0,0.000885,0,0
0:0:39.995,70.6733,8.99766,0,0.000885,0,0
0:0:40.894,72.6083,9.24587,0,0.000885,0,0
0:0:41.789,74.1919,9.44582,0,0.000885,0,0
0:0:42.693,75.7755,9.64577,0,0.000885,0,0
0:0:43.603,77.5948,9.88019,0,0.000885,0,0
0:0:44.499,79.4719,10.1215,0,0.000885,0,0
0:0:45.395,81.1711,10.3352,0,0.000885,0,0
0:0:46.287,82.9326,10.5559,0,0.000885,0,0
0:0:47.190,84.6897,10.7834,0,0.000885,0,0
0:0:48.100,86.8026,11.0523,0,0.000885,0,0
0:0:49.003,88.3862,11.2522,0,0.000885,0,0
0:0:49.897,90.0276,11.466,0,0.000885,0,0
0:0:50.790,92.1405,11.7349,0,0.000885,0,0
0:0:51.687,93.2525,11.8728,0,0.000885,0,0
0:0:52.594,94.9562,12.0934,0,0.000885,0,0
0:0:53.503,97.0646,12.3623,0,0.000885,0,0
0:0:54.397,99.2932,12.645,0,0.000885,0,0
0:0:55.294,100.352,12.776,0,0.000885,0,0
0:0:56.191,101.993,12.9828,0,0.000885,0,0
0:0:57.085,103.928,13.231,0,0.000885,0,0
0:0:57.998,106.215,13.5206,0,0.000885,0,0
0:0:58.902,107.976,13.7481,0,0.000885,0,0
0:0:59.798,109.618,13.955,0,0.000885,0,0
0:1:0.694,111.259,14.1687,0,0.000885,0,0
0:1:1.587,113.194,14.41,0,0.000885,0,0
0:1:2.499,114.546,14.5824,0,0.000885,0,0
0:1:3.408,116.361,14.8168,0,0.000885,0,0
0:1:4.304,118.065,15.0306,0,0.000885,0,0
0:1:5.195,119.648,15.2305,0,0.000885,0,0
0:1:6.093,121.583,15.4787,0,0.000885,0,0
0:1:6.990,123.46,15.72,0,0.000885,0,0
0:1:7.902,125.511,15.982,0,0.000885,0,0
0:1:8.805,126.743,16.1406,0,0.000885,0,0
0:1:9.701,128.914,16.4164,0,0.000885,0,0
0:1:10.597,130.791,16.6508,0,0.000885,0,0
0:1:11.491,132.548,16.8784,0,0.000885,0,0
0:1:12.394,133.9,17.0507,0,0.000885,0,0
0:1:13.305,135.835,17.2921,0,0.000885,0,0
0:1:14.207,137.592,17.5196,0,0.000885,0,0
0:1:15.099,139.763,17.7954,0,0.000885,0,0
0:1:15.995,141.289,17.9884,0,0.000885,0,0
0:1:16.894,143.224,18.2366,0,0.000885,0,0
0:1:17.800,144.572,18.409,0,0.000885,0,0
0:1:18.709,146.155,18.6089,0,0.000885,0,0
0:1:19.604,148.62,18.9261,0,0.000885,0,0
0:1:20.502,150.323,19.1398,0,0.000885,0,0
0:1:21.398,152.022,19.3536,0,0.000885,0,0
0:1:22.304,153.9,19.5949,0,0.000885,0,0
0:1:23.212,155.425,19.788,0,0.000885,0,0
0:1:24.109,157.009,19.9879,0,0.000885,0,0
0:1:25.009,159.237,20.2775,0,0.000885,0,0
0:1:25.905,160.821,20.4774,0,0.000885,0,0
0:1:26.798,162.347,20.6705,0,0.000885,0,0
0:1:27.710,164.219,20.9118,0,0.000885,0,0
0:1:28.614,166.039,21.1393,0,0.000885,0,0
0:1:29.512,167.8,21.3669,0,0.000885,0,0
0:1:30.407,169.677,21.6013,0,0.000885,0,0
0:1:31.301,171.199,21.8012,0,0.000885,0,0
0:1:32.200,172.782,22.0012,0,0.000885,0,0
0:1:33.113,175.131,22.2976,0,0.000885,0,0
0:1:34.015,177.244,22.5665,0,0.000885,0,0
0:1:34.907,178.24,22.6906,0,0.000885,0,0
0:1:35.806,179.939,22.9113,0,0.000885,0,0
0:1:36.703,181.523,23.1112,0,0.000885,0,0
0:1:37.605,183.285,23.3388,0,0.000885,0,0
0:1:38.514,185.807,23.6559,0,0.000885,0,0
0:1:39.413,187.622,23.8903,0,0.000885,0,0
0:1:40.311,188.854,24.0489,0,0.000885,0,0
0:1:41.205,190.615,24.2695,0,0.000885,0,0
0:1:42.108,192.199,24.4695,0,0.000885,0,0
0:1:43.013,194.134,24.7177,0,0.000885,0,0
0:1:43.908,196.069,24.9659,0,0.000885,0,0
0:1:44.796,197.888,25.1934,0,0.000885,0,0
0:1:45.683,199.939,25.4554,0,0.000885,0,0
0:1:46.572,201.286,25.6278,0,0.000885,0,0
0:1:47.471,202.87,25.8278,0,0.000885,0,0
0:1:48.374,204.222,26.0001,0,0.000885,0,0
0:1:49.263,206.624,26.3104,0,0.000885,0,0
0:1:50.154,208.092,26.4966,0,0.000885,0,0
0:1:51.041,210.027,26.7448,0,0.000885,0,0
0:1:51.928,212.14,27.0137,0,0.000885,0,0
0:1:52.835,213.724,27.2136,0,0.000885,0,0
0:1:53.738,214.894,27.3584,0,0.000885,0,0
0:1:54.626,217.242,27.6618,0,0.000885,0,0
0:1:55.513,218.768,27.8548,0,0.000885,0,0
0:1:56.404,220.645,28.0961,0,0.000885,0,0
0:1:57.308,221.993,28.2616,0,0.000885,0,0
0:1:58.209,224.044,28.5236,0,0.000885,0,0
0:1:59.098,226.156,28.7925,0,0.000885,0,0
0:1:59.990,227.976,29.0269,0,0.000885,0,0
0:2:0.887,229.502,29.22,0,0.000885,0,0
0:2:1.796,231.494,29.4751,0,0.000885,0,0
0:2:2.700,233.723,29.7578,0,0.000885,0,0
0:2:3.597,234.484,29.8543,0,0.000885,0,0
0:2:4.490,236.125,30.068,0,0.000885,0,0
0:2:5.385,238.002,30.3025,0,0.000885,0,0
0:2:6.274,240.057,30.5645,0,0.000885,0,0
0:2:7.187,241.521,30.7506,0,0.000885,0,0
0:2:8.093,243.104,30.9506,0,0.000885,0,0
0:2:8.986,245.337,31.2401,0,0.000885,0,0
0:2:9.873,247.272,31.4815,0,0.000885,0,0
0:2:10.761,248.856,31.6883,0,0.000885,0,0
0:2:11.653,250.849,31.9365,0,0.000885,0,0
0:2:12.553,252.784,32.1847,0,0.000885,0,0
0:2:13.454,254.131,32.3571,0,0.000885,0,0
0:2:14.342,255.599,32.5433,0,0.000885,0,0
0:2:15.233,257.712,32.8121,0,0.000885,0,0
0:2:16.122,259.296,33.0121,0,0.000885,0,0
0:2:17.010,260.879,33.2189,0,0.000885,0,0
0:2:17.915,262.814,33.4603,0,0.000885,0,0
0:2:18.812,264.278,33.6464,0,0.000885,0,0
0:2:19.704,266.333,33.9084,0,0.000885,0,0
0:2:20.593,267.916,34.1153,0,0.000885,0,0
0:2:21.488,269.322,34.2945,0,0.000885,0,0
0:2:22.396,271.319,34.5427,0,0.000885,0,0
0:2:23.296,272.961,34.7565,0,0.000885,0,0
0:2:24.195,274.776,34.984,0,0.000885,0,0
0:2:25.079,276.831,35.246,0,0.000885,0,0
0:2:25.966,279.001,35.5218,0,0.000885,0,0
0:2:26.862,280.407,35.7011,0,0.000885,0,0
0:2:27.767,282.462,35.9631,0,0.000885,0,0
0:2:28.664,283.926,36.1492,0,0.000885,0,0
0:2:29.551,285.687,36.3767,0,0.000885,0,0
0:2:30.441,287.213,36.5698,0,0.000885,0,0
0:2:31.332,288.912,36.7835,0,0.000885,0,0
0:2:32.229,291.318,37.0938,0,0.000885,0,0
0:2:33.131,292.902,37.2937,0,0.000885,0,0
0:2:34.023,294.308,37.473,0,0.000885,0,0
0:2:34.913,295.891,37.673,0,0.000885,0,0
0:2:35.799,297.59,37.8936,0,0.000885,0,0
0:2:36.697,299.703,38.1625,0,0.000885,0,0
0:2:37.602,301.229,38.3555,0,0.000885,0,0
0:2:38.503,302.813,38.5555,0,0.000885,0,0
0:2:39.392,304.863,38.8175,0,0.000885,0,0
0:2:40.300,307.154,39.1071,0,0.000885,0,0
0:2:41.200,308.151,39.2381,0,0.000885,0,0
0:2:42.101,309.792,39.4449,0,0.000885,0,0
0:2:43.002,311.611,39.6724,0,0.000885,0,0
0:2:43.900,313.017,39.8517,0,0.000885,0,0
0:2:44.801,315.188,40.1344,0,0.000885,0,0
0:2:45.698,316.949,40.355,0,0.000885,0,0
0:2:46.582,318.413,40.5412,0,0.000885,0,0
0:2:47.487,320.641,40.8239,0,0.000885,0,0
0:2:48.398,322.051,41.0031,0,0.000885,0,0
0:2:49.285,323.048,41.1341,0,0.000885,0,0
0:2:50.191,325.098,41.3961,0,0.000885,0,0
0:2:51.090,326.682,41.5961,0,0.000885,0,0
0:2:51.990,326.566,41.5823,0,0.000885,0,0
0:2:52.893,322.638,41.079,0,0.000885,0,0
0:2:53.796,322.225,41.0238,0,0.000885,0,0
0:2:54.700,321.993,40.9962,0,0.000885,0,0
0:2:55.598,322.696,41.0859,0,0.000885,0,0
0:2:56.493,323.808,41.2306,0,0.000885,0,0
0:2:57.398,324.453,41.3134,0,0.000885,0,0
0:2:58.290,325.512,41.4444,0,0.000885,0,0
0:2:59.188,326.682,41.5961,0,0.000885,0,0
0:3:0.075,327.153,41.6512,0,0.000885,0,0
0:3:0.960,327.327,41.6788,0,0.000885,0,0
0:3:1.855,328.853,41.8719,0,0.000885,0,0
0:3:2.760,329.849,41.996,0,0.000885,0,0
0:3:3.654,329.849,41.996,0,0.000885,0,0
0:3:4.539,330.143,42.0373,0,0.000885,0,0
0:3:5.428,328.853,41.8719,0,0.000885,0,0
0:3:6.317,327.033,41.6374,0,0.000885,0,0
0:3:7.210,326.095,41.5202,0,0.000885,0,0
0:3:8.110,324.747,41.3479,0,0.000885,0,0
0:3:9.001,324.222,41.2789,0,0.000885,0,0
0:3:9.898,322.812,41.0996,0,0.000885,0,0
0:3:10.791,321.055,40.879,0,0.000885,0,0
0:3:11.685,318.591,40.5619,0,0.000885,0,0
0:3:12.586,317.594,40.4378,0,0.000885,0,0
0:3:13.479,312.608,39.8034,0,0.000885,0,0
0:3:14.363,311.14,39.6173,0,0.000885,0,0
0:3:15.250,312.078,39.7345,0,0.000885,0,0
0:3:16.140,312.843,39.831,0,0.000885,0,0
0:3:17.037,312.901,39.8379,0,0.000885,0,0
0:3:17.937,313.955,39.9758,0,0.000885,0,0
0:3:18.825,315.072,40.1137,0,0.000885,0,0
0:3:19.713,315.481,40.1689,0,0.000885,0,0
0:3:20.595,316.656,40.3205,0,0.000885,0,0
0:3:21.501,318.239,40.5205,0,0.000885,0,0
0:3:22.403,318.648,40.5688,0,0.000885,0,0
0:3:23.302,320.232,40.7756,0,0.000885,0,0
0:3:24.196,321.758,40.9686,0,0.000885,0,0
0:3:25.100,322.109,41.01,0,0.000885,0,0
0:3:25.999,320.468,40.8032,0,0.000885,0,0
0:3:26.908,313.662,39.9344,0,0.000885,0,0
0:3:27.808,308.796,39.3139,0,0.000885,0,0
0:3:28.702,302.461,38.5072,0,0.000885,0,0
0:3:29.600,273.837,34.8668,0,0.000885,0,0
0:3:29.658,273.837,34.8668,0,0.000885,0,0