Folder: Experiment-Files (part 71)

File: DataFile2021-07-15_045417.csv
Test ID:,Date Tested:,Time:,Test Type:,Diameter Avg. (mm):,Cyl. Corr. Factor:,Height (mm):,Age (days):,Weight (kN):,Break Type:,Ramp Rate (MPa/s):,Load at Break (kN):,Stress at Break (MPa):
12,7/15/2021,04:54,Cylinder,150,1,300,0,3.6,3,0.25,1703.48,96.4
Sample Time,Load (kN),Stress (MPa),Long. Strain,Trans. Strain,Chan1 Deflection (mm),Chan2 Deflection (mm)
0:0:12.151,5.63145,0.317159,0,0.000885,0,0
0:0:13.836,12.2593,0.69637,0,0.000885,0,0
0:0:15.527,19.7634,1.11695,0,0.000885,0,0
0:0:17.219,27.3877,1.55132,0,0.000885,0,0
0:0:18.930,35.5991,2.01327,0,0.000885,0,0
0:0:20.626,44.5756,2.52348,0,0.000885,0,0
0:0:22.321,50.8521,2.87511,0,0.000885,0,0
0:0:24.035,57.947,3.2819,0,0.000885,0,0
0:0:25.725,65.162,3.6887,0,0.000885,0,0
0:0:27.420,73.4891,4.15754,0,0.000885,0,0
0:0:29.138,80.9398,4.57812,0,0.000885,0,0
0:0:30.826,88.444,5.00559,0,0.000885,0,0
0:0:32.520,96.1261,5.43996,0,0.000885,0,0
0:0:34.236,103.105,5.83296,0,0.000885,0,0
0:0:35.927,110.672,6.26044,0,0.000885,0,0
0:0:37.626,117.713,6.66034,0,0.000885,0,0
0:0:39.335,125.453,7.1016,0,0.000885,0,0
0:0:41.028,133.429,7.54976,0,0.000885,0,0
0:0:42.726,141.173,7.99102,0,0.000885,0,0
0:0:44.434,148.504,8.40471,0,0.000885,0,0
0:0:46.126,155.835,8.81839,0,0.000885,0,0
0:0:47.822,163.401,9.24587,0,0.000885,0,0
0:0:49.531,170.554,9.65266,0,0.000885,0,0
0:0:51.225,179.001,10.1284,0,0.000885,0,0
0:0:52.923,185.744,10.5145,0,0.000885,0,0
0:0:54.633,192.666,10.9006,0,0.000885,0,0
0:0:56.314,200.526,11.3488,0,0.000885,0,0
0:0:58.015,208.386,11.79,0,0.000885,0,0
0:0:59.712,216.304,12.2382,0,0.000885,0,0
0:1:1.413,222.989,12.6174,0,0.000885,0,0
0:1:3.115,230.498,13.0449,0,0.000885,0,0
0:1:4.812,238.474,13.493,0,0.000885,0,0
0:1:6.504,245.689,13.8998,0,0.000885,0,0
0:1:8.204,253.077,14.3204,0,0.000885,0,0
0:1:9.902,260.644,14.7479,0,0.000885,0,0
0:1:11.602,268.441,15.1892,0,0.000885,0,0
0:1:13.300,275.421,15.589,0,0.000885,0,0
0:1:15.005,283.752,16.0579,0,0.000885,0,0
0:1:16.704,290.496,16.4371,0,0.000885,0,0
0:1:18.402,298.471,16.8922,0,0.000885,0,0
0:1:20.106,305.393,17.2852,0,0.000885,0,0
0:1:21.802,313.195,17.7264,0,0.000885,0,0
0:1:23.514,321.522,18.1953,0,0.000885,0,0
0:1:25.208,328.092,18.5676,0,0.000885,0,0
0:1:26.897,336.125,19.0226,0,0.000885,0,0
0:1:28.606,343.163,19.4225,0,0.000885,0,0
0:1:30.290,350.729,19.85,0,0.000885,0,0
0:1:31.969,358.295,20.2775,0,0.000885,0,0
0:1:33.671,366.449,20.7394,0,0.000885,0,0
0:1:35.356,372.899,21.1049,0,0.000885,0,0
0:1:37.035,380.937,21.5599,0,0.000885,0,0
0:1:38.742,388.325,21.9736,0,0.000885,0,0
0:1:40.422,395.598,22.3873,0,0.000885,0,0
0:1:42.119,403.044,22.8079,0,0.000885,0,0
0:1:43.826,410.495,23.2284,0,0.000885,0,0
0:1:45.511,418.004,23.6559,0,0.000885,0,0
0:1:47.191,425.979,24.1041,0,0.000885,0,0
0:1:48.896,432.723,24.4902,0,0.000885,0,0
0:1:50.596,440.934,24.9521,0,0.000885,0,0
0:1:52.301,447.678,25.3313,0,0.000885,0,0
0:1:54.010,455.654,25.7864,0,0.000885,0,0
0:1:55.709,463.34,26.2208,0,0.000885,0,0
0:1:57.402,470.555,26.6276,0,0.000885,0,0
0:1:59.111,478.117,27.055,0,0.000885,0,0
0:2:0.811,485.568,27.4756,0,0.000885,0,0
0:2:2.513,493.25,27.91,0,0.000885,0,0
0:2:4.213,500.638,28.3306,0,0.000885,0,0
0:2:5.924,508.619,28.7787,0,0.000885,0,0
0:2:7.605,515.478,29.1717,0,0.000885,0,0
0:2:9.306,523.458,29.6199,0,0.000885,0,0
0:2:10.985,530.495,30.0198,0,0.000885,0,0
0:2:12.668,538.119,30.4541,0,0.000885,0,0
0:2:14.368,545.334,30.8609,0,0.000885,0,0
0:2:16.049,552.838,31.2815,0,0.000885,0,0
0:2:17.742,560.169,31.7021,0,0.000885,0,0
0:2:19.435,567.793,32.1296,0,0.000885,0,0
0:2:21.122,574.95,32.5364,0,0.000885,0,0
0:2:22.826,582.753,32.9776,0,0.000885,0,0
0:2:24.519,589.674,33.3706,0,0.000885,0,0
0:2:26.211,597.654,33.8188,0,0.000885,0,0
0:2:27.909,605.403,34.26,0,0.000885,0,0
0:2:29.624,612.565,34.6668,0,0.000885,0,0
0:2:31.316,620.723,35.1288,0,0.000885,0,0
0:2:33.022,627.826,35.5287,0,0.000885,0,0
0:2:34.715,635.691,35.9699,0,0.000885,0,0
0:2:36.412,642.323,36.3492,0,0.000885,0,0
0:2:38.117,650.601,36.818,0,0.000885,0,0
0:2:39.812,657.176,37.1903,0,0.000885,0,0
0:2:41.522,666.041,37.6867,0,0.000885,0,0
0:2:43.226,673.261,38.1004,0,0.000885,0,0
0:2:44.921,680.48,38.5072,0,0.000885,0,0
0:2:46.611,688.344,38.9554,0,0.000885,0,0
0:2:48.337,694.977,39.3277,0,0.000885,0,0
0:2:50.026,703.428,39.8034,0,0.000885,0,0
0:2:51.712,710.417,40.2033,0,0.000885,0,0
0:2:53.422,717.4,40.5963,0,0.000885,0,0
0:2:55.112,725.558,41.0583,0,0.000885,0,0
0:2:56.800,732.662,41.4582,0,0.000885,0,0
0:2:58.508,740.527,41.9063,0,0.000885,0,0
0:3:0.210,747.75,42.3131,0,0.000885,0,0
0:3:1.910,755.909,42.7751,0,0.000885,0,0
0:3:3.616,762.425,43.1474,0,0.000885,0,0
0:3:5.318,770.877,43.6231,0,0.000885,0,0
0:3:7.005,777.273,43.9817,0,0.000885,0,0
0:3:8.723,785.494,44.4505,0,0.000885,0,0
0:3:10.416,793.358,44.8918,0,0.000885,0,0
0:3:12.114,800.226,45.2848,0,0.000885,0,0
0:3:13.830,808.384,45.7467,0,0.000885,0,0
0:3:15.516,815.137,46.1259,0,0.000885,0,0
0:3:17.211,823.41,46.5948,0,0.000885,0,0
0:3:18.928,831.043,47.0291,0,0.000885,0,0
0:3:20.625,838.085,47.429,0,0.000885,0,0
0:3:22.315,846.012,47.8772,0,0.000885,0,0
0:3:24.023,853.116,48.2771,0,0.000885,0,0
0:3:25.721,860.451,48.6908,0,0.000885,0,0
0:3:27.413,868.435,49.1458,0,0.000885,0,0
0:3:29.120,875.535,49.5457,0,0.000885,0,0
0:3:30.809,882.874,49.9594,0,0.000885,0,0
0:3:32.512,891.032,50.4214,0,0.000885,0,0
0:3:34.217,898.545,50.8488,0,0.000885,0,0
0:3:35.910,906,51.2694,0,0.000885,0,0
0:3:37.606,913.34,51.6831,0,0.000885,0,0
0:3:39.315,920.559,52.0899,0,0.000885,0,0
0:3:41.014,928.424,52.5381,0,0.000885,0,0
0:3:42.715,935.408,52.9311,0,0.000885,0,0
0:3:44.415,943.277,53.3792,0,0.000885,0,0
0:3:46.121,950.905,53.8136,0,0.000885,0,0
0:3:47.824,958.125,54.2204,0,0.000885,0,0
0:3:49.523,965.758,54.6478,0,0.000885,0,0
0:3:51.209,973.387,55.0822,0,0.000885,0,0
0:3:52.918,980.842,55.5028,0,0.000885,0,0
0:3:54.619,988.061,55.9096,0,0.000885,0,0
0:3:56.316,996.161,56.3715,0,0.000885,0,0
0:3:58.018,1003.97,56.8128,0,0.000885,0,0
0:3:59.717,1010.9,57.2058,0,0.000885,0,0
0:4:1.416,1018.47,57.6333,0,0.000885,0,0
0:4:3.124,1025.75,58.047,0,0.000885,0,0
0:4:4.836,1033.62,58.4882,0,0.000885,0,0
0:4:6.539,1041.24,58.9226,0,0.000885,0,0
0:4:8.246,1048.23,59.3156,0,0.000885,0,0
0:4:9.936,1056.39,59.7775,0,0.000885,0,0
0:4:11.636,1063.14,60.1637,0,0.000885,0,0
0:4:13.345,1071.53,60.6394,0,0.000885,0,0
0:4:15.035,1078.52,61.0324,0,0.000885,0,0
0:4:16.723,1085.62,61.4323,0,0.000885,0,0
0:4:18.433,1093.43,61.8736,0,0.000885,0,0
0:4:20.133,1100.82,62.2941,0,0.000885,0,0
0:4:21.823,1108.1,62.7078,0,0.000885,0,0
0:4:23.531,1116.14,63.1629,0,0.000885,0,0
0:4:25.218,1123.89,63.5972,0,0.000885,0,0
0:4:26.909,1131.29,64.0178,0,0.000885,0,0
0:4:28.616,1139.04,64.4591,0,0.000885,0,0
0:4:30.325,1145.38,64.8176,0,0.000885,0,0
0:4:32.024,1153.71,65.2865,0,0.000885,0,0
0:4:33.740,1161.76,65.7415,0,0.000885,0,0
0:4:35.433,1168.27,66.1138,0,0.000885,0,0
0:4:37.119,1176.14,66.5551,0,0.000885,0,0
0:4:38.836,1183.71,66.9826,0,0.000885,0,0
0:4:40.522,1191.51,67.4238,0,0.000885,0,0
0:4:42.237,1198.38,67.8168,0,0.000885,0,0
0:4:43.954,1206.37,68.265,0,0.000885,0,0
0:4:45.641,1214,68.6994,0,0.000885,0,0
0:4:47.335,1221.21,69.1062,0,0.000885,0,0
0:4:49.041,1229.14,69.5543,0,0.000885,0,0
0:4:50.740,1236.48,69.968,0,0.000885,0,0
0:4:52.432,1244.17,70.4024,0,0.000885,0,0
0:4:54.141,1251.39,70.8161,0,0.000885,0,0
0:4:55.830,1258.84,71.2366,0,0.000885,0,0
0:4:57.539,1265.77,71.6296,0,0.000885,0,0
0:4:59.249,1273.52,72.064,0,0.000885,0,0
0:5:0.941,1281.62,72.526,0,0.000885,0,0
0:5:2.626,1288.72,72.9258,0,0.000885,0,0
0:5:4.336,1296.94,73.3947,0,0.000885,0,0
0:5:6.025,1303.51,73.767,0,0.000885,0,0
0:5:7.747,1311.79,74.229,0,0.000885,0,0
0:5:9.444,1318.13,74.5875,0,0.000885,0,0
0:5:11.130,1326.05,75.0425,0,0.000885,0,0
0:5:12.829,1333.63,75.47,0,0.000885,0,0
0:5:14.528,1341.37,75.9044,0,0.000885,0,0
0:5:16.246,1349.3,76.3525,0,0.000885,0,0
0:5:17.947,1355.64,76.7111,0,0.000885,0,0
0:5:19.648,1364.5,77.2144,0,0.000885,0,0
0:5:21.334,1371.31,77.6005,0,0.000885,0,0
0:5:23.033,1378.7,78.0211,0,0.000885,0,0
0:5:24.745,1386.51,78.4623,0,0.000885,0,0
0:5:26.442,1394.14,78.8898,0,0.000885,0,0
0:5:28.149,1401.36,79.3035,0,0.000885,0,0
0:5:29.844,1408.88,79.7241,0,0.000885,0,0
0:5:31.539,1416.51,80.1584,0,0.000885,0,0
0:5:33.243,1423.73,80.5652,0,0.000885,0,0
0:5:34.941,1431.48,81.0065,0,0.000885,0,0
0:5:36.632,1438.99,81.4271,0,0.000885,0,0
0:5:38.336,1446.97,81.8821,0,0.000885,0,0
0:5:40.044,1454.25,82.2958,0,0.000885,0,0
0:5:41.726,1461.24,82.6888,0,0.000885,0,0
0:5:43.435,1469.34,83.1508,0,0.000885,0,0
0:5:45.125,1476.26,83.5369,0,0.000885,0,0
0:5:46.840,1484.26,83.9919,0,0.000885,0,0
0:5:48.548,1491.68,84.4125,0,0.000885,0,0
0:5:50.235,1498.86,84.8193,0,0.000885,0,0
0:5:51.921,1506.23,85.233,0,0.000885,0,0
0:5:53.624,1514.35,85.6949,0,0.000885,0,0
0:5:55.333,1521.77,86.1155,0,0.000885,0,0
0:5:57.022,1528.89,86.5154,0,0.000885,0,0
0:5:58.728,1536.49,86.9498,0,0.000885,0,0
0:6:0.434,1543.73,87.3566,0,0.000885,0,0
0:6:2.124,1551.98,87.8254,0,0.000885,0,0
0:6:3.833,1558.87,88.2115,0,0.000885,0,0
0:6:5.538,1566.93,88.6735,0,0.000885,0,0
0:6:7.247,1574.65,89.1078,0,0.000885,0,0
0:6:8.960,1581.89,89.5146,0,0.000885,0,0
0:6:10.644,1589.6,89.9559,0,0.000885,0,0
0:6:12.330,1596.43,90.342,0,0.000885,0,0
0:6:14.048,1604.32,90.7833,0,0.000885,0,0
0:6:15.730,1611.63,91.197,0,0.000885,0,0
0:6:17.449,1619.34,91.6382,0,0.000885,0,0
0:6:19.153,1627.05,92.0726,0,0.000885,0,0
0:6:20.850,1634.24,92.4794,0,0.000885,0,0
0:6:22.546,1642.36,92.9413,0,0.000885,0,0
0:6:24.252,1649.08,93.3205,0,0.000885,0,0
0:6:25.940,1656.73,93.7549,0,0.000885,0,0
0:6:27.631,1664.32,94.1824,0,0.000885,0,0
0:6:29.340,1671.09,94.5616,0,0.000885,0,0
0:6:31.039,1678.46,94.9822,0,0.000885,0,0
0:6:32.742,1686.88,95.4579,0,0.000885,0,0
0:6:34.450,1694.12,95.8647,0,0.000885,0,0
0:6:36.135,1699.3,96.1612,0,0.000885,0,0
0:6:37.842,1703.37,96.3887,0,0.000885,0,0
0:6:39.534,1211.53,68.5615,0,0.000885,0,0
0:6:41.030,1192.87,67.4997,0,0.000885,0,0

File: DataFile2021-07-15_050657.csv
Test ID:,Date Tested:,Time:,Test Type:,Diameter Avg. (mm):,Cyl. Corr. Factor:,Height (mm):,Age (days):,Weight (kN):,Break Type:,Ramp Rate (MPa/s):,Load at Break (kN):,Stress at Break (MPa):
12,7/15/2021,05:06,Cylinder,150,1,300,0,3.6,3,0.25,1672.98,94.67
Sample Time,Load (kN),Stress (MPa),Long. Strain,Trans. Strain,Chan1 Deflection (mm),Chan2 Deflection (mm)
0:0:8.016,5.15994,0.28958,0,0.000885,0,0
0:0:9.605,12.6685,0.717055,0,0.000885,0,0
0:0:11.196,18.4735,1.048,0,0.000885,0,0
0:0:12.785,24.7499,1.39964,0,0.000885,0,0
0:0:14.397,33.2549,1.88227,0,0.000885,0,0
0:0:15.999,41.4085,2.34422,0,0.000885,0,0
0:0:17.593,47.8584,2.70964,0,0.000885,0,0
0:0:19.204,54.6642,3.09575,0,0.000885,0,0
0:0:20.802,61.5812,3.48185,0,0.000885,0,0
0:0:22.392,70.8513,4.00585,0,0.000885,0,0
0:0:23.999,76.069,4.30233,0,0.000885,0,0
0:0:25.600,82.4033,4.66086,0,0.000885,0,0
0:0:27.194,90.1477,5.10212,0,0.000885,0,0
0:0:28.797,97.4205,5.51581,0,0.000885,0,0
0:0:30.406,104.631,5.9226,0,0.000885,0,0
0:0:32.000,110.965,6.28112,0,0.000885,0,0
0:0:33.593,118.474,6.7017,0,0.000885,0,0
0:0:35.210,125.689,7.11539,0,0.000885,0,0
0:0:36.803,132.259,7.48081,0,0.000885,0,0
0:0:38.397,139.763,7.90829,0,0.000885,0,0
0:0:40.011,146.92,8.31508,0,0.000885,0,0
0:0:41.603,153.019,8.65982,0,0.000885,0,0
0:0:43.196,160.821,9.10108,0,0.000885,0,0
0:0:44.813,167.68,9.48719,0,0.000885,0,0
0:0:46.406,175.425,9.92845,0,0.000885,0,0
0:0:47.998,182.052,10.3008,0,0.000885,0,0
0:0:49.607,189.032,10.6938,0,0.000885,0,0
0:0:51.201,196.011,11.0937,0,0.000885,0,0
0:0:52.779,202.812,11.4798,0,0.000885,0,0
0:0:54.394,209.912,11.8797,0,0.000885,0,0
0:0:55.986,217.416,12.3002,0,0.000885,0,0
0:0:57.585,224.395,12.7001,0,0.000885,0,0
0:0:59.187,231.494,13.1,0,0.000885,0,0
0:1:0.782,238.002,13.4655,0,0.000885,0,0
0:1:2.382,245.159,13.8723,0,0.000885,0,0
0:1:3.985,252.784,14.3066,0,0.000885,0,0
0:1:5.589,260.056,14.7134,0,0.000885,0,0
0:1:7.189,266.275,15.065,0,0.000885,0,0
0:1:8.782,273.663,15.4856,0,0.000885,0,0
0:1:10.382,280.643,15.8786,0,0.000885,0,0
0:1:11.985,288.209,16.3061,0,0.000885,0,0
0:1:13.587,294.717,16.6784,0,0.000885,0,0
0:1:15.184,302.283,17.1059,0,0.000885,0,0
0:1:16.782,308.266,17.4437,0,0.000885,0,0
0:1:18.382,315.833,17.8712,0,0.000885,0,0
0:1:19.990,322.696,18.2642,0,0.000885,0,0
0:1:21.577,330.263,18.6917,0,0.000885,0,0
0:1:23.188,337.415,19.0916,0,0.000885,0,0
0:1:24.794,344.395,19.4915,0,0.000885,0,0
0:1:26.385,350.907,19.8569,0,0.000885,0,0
0:1:27.985,358.531,20.2913,0,0.000885,0,0
0:1:29.591,365.568,20.6843,0,0.000885,0,0
0:1:31.190,372.957,21.1049,0,0.000885,0,0
0:1:32.792,379.527,21.4772,0,0.000885,0,0
0:1:34.391,386.626,21.8771,0,0.000885,0,0
0:1:35.987,394.072,22.2976,0,0.000885,0,0
0:1:37.586,400.878,22.6838,0,0.000885,0,0
0:1:39.194,407.68,23.0699,0,0.000885,0,0
0:1:40.792,415.304,23.5042,0,0.000885,0,0
0:1:42.393,422.634,23.9179,0,0.000885,0,0
0:1:43.995,429.204,24.2902,0,0.000885,0,0
0:1:45.591,436.184,24.6832,0,0.000885,0,0
0:1:47.192,443.163,25.0762,0,0.000885,0,0
0:1:48.794,450.32,25.483,0,0.000885,0,0
0:1:50.386,457.709,25.9036,0,0.000885,0,0
0:1:51.994,464.394,26.2759,0,0.000885,0,0
0:1:53.595,471.489,26.6827,0,0.000885,0,0
0:1:55.195,478.94,27.1033,0,0.000885,0,0
0:1:56.787,485.39,27.4687,0,0.000885,0,0
0:1:58.389,492.605,27.8755,0,0.000885,0,0
0:1:59.991,500.407,28.3168,0,0.000885,0,0
0:2:1.588,507.444,28.7167,0,0.000885,0,0
0:2:3.190,514.423,29.1097,0,0.000885,0,0
0:2:4.795,520.7,29.4682,0,0.000885,0,0
0:2:6.390,528.676,29.9164,0,0.000885,0,0
0:2:7.991,535.361,30.2956,0,0.000885,0,0
0:2:9.599,542.398,30.6955,0,0.000885,0,0
0:2:11.194,549.729,31.1091,0,0.000885,0,0
0:2:12.794,556.886,31.5159,0,0.000885,0,0
0:2:14.393,563.514,31.8883,0,0.000885,0,0
0:2:15.992,570.084,32.2606,0,0.000885,0,0
0:2:17.591,577.708,32.6949,0,0.000885,0,0
0:2:19.201,585.155,33.1155,0,0.000885,0,0
0:2:20.789,592.081,33.5016,0,0.000885,0,0
0:2:22.396,599.3,33.9153,0,0.000885,0,0
0:2:23.997,605.99,34.2945,0,0.000885,0,0
0:2:25.594,612.916,34.6806,0,0.000885,0,0
0:2:27.191,620.078,35.0874,0,0.000885,0,0
0:2:28.801,627.181,35.4942,0,0.000885,0,0
0:2:30.407,634.343,35.8941,0,0.000885,0,0
0:2:31.996,641.62,36.3078,0,0.000885,0,0
0:2:33.594,647.723,36.6525,0,0.000885,0,0
0:2:35.207,655.299,37.08,0,0.000885,0,0
0:2:36.792,662.812,37.5075,0,0.000885,0,0
0:2:38.393,669.622,37.8936,0,0.000885,0,0
0:2:40.000,676.957,38.3073,0,0.000885,0,0
0:2:41.586,683.647,38.6865,0,0.000885,0,0
0:2:43.195,690.693,39.0864,0,0.000885,0,0
0:2:44.809,697.855,39.4932,0,0.000885,0,0
0:2:46.396,704.839,39.8862,0,0.000885,0,0
0:2:47.996,712.058,40.293,0,0.000885,0,0
0:2:49.601,719.865,40.7342,0,0.000885,0,0
0:2:51.195,725.621,41.0583,0,0.000885,0,0
0:2:52.799,733.894,41.5271,0,0.000885,0,0
0:2:54.410,739.882,41.8719,0,0.000885,0,0
0:2:56.000,747.043,42.2718,0,0.000885,0,0
0:2:57.587,754.734,42.7061,0,0.000885,0,0
0:2:59.206,762.132,43.1267,0,0.000885,0,0
0:3:0.802,768.235,43.4714,0,0.000885,0,0
0:3:2.388,775.863,43.9058,0,0.000885,0,0
0:3:3.999,782.909,44.3057,0,0.000885,0,0
0:3:5.599,789.306,44.6642,0,0.000885,0,0
0:3:7.185,797.112,45.1055,0,0.000885,0,0
0:3:8.801,804.043,45.4985,0,0.000885,0,0
0:3:10.408,810.617,45.8708,0,0.000885,0,0
0:3:11.996,818.188,46.2983,0,0.000885,0,0
0:3:13.603,824.585,46.6637,0,0.000885,0,0
0:3:15.209,832.098,47.0843,0,0.000885,0,0
0:3:16.799,839.317,47.498,0,0.000885,0,0
0:3:18.397,846.772,47.9186,0,0.000885,0,0
0:3:20.010,852.995,48.2702,0,0.000885,0,0
0:3:21.597,860.335,48.6839,0,0.000885,0,0
0:3:23.195,867.67,49.0976,0,0.000885,0,0
0:3:24.804,874.89,49.5113,0,0.000885,0,0
0:3:26.391,881.406,49.8767,0,0.000885,0,0
0:3:27.980,888.746,50.2904,0,0.000885,0,0
0:3:29.595,896.081,50.7109,0,0.000885,0,0
0:3:31.195,902.655,51.0833,0,0.000885,0,0
0:3:32.805,910.053,51.4969,0,0.000885,0,0
0:3:34.410,916.863,51.883,0,0.000885,0,0
0:3:36.006,924.492,52.3174,0,0.000885,0,0
0:3:37.592,931.538,52.7173,0,0.000885,0,0
0:3:39.206,937.934,53.0758,0,0.000885,0,0
0:3:40.803,945.038,53.4757,0,0.000885,0,0
0:3:42.393,952.257,53.8894,0,0.000885,0,0
0:3:44.002,959.299,54.2824,0,0.000885,0,0
0:3:45.605,966.518,54.6961,0,0.000885,0,0
0:3:47.203,973.213,55.0753,0,0.000885,0,0
0:3:48.800,980.139,55.4614,0,0.000885,0,0
0:3:50.401,987.652,55.8889,0,0.000885,0,0
0:3:51.998,994.636,56.2819,0,0.000885,0,0
0:3:53.600,1002.21,56.7163,0,0.000885,0,0
0:3:55.206,1008.79,57.0886,0,0.000885,0,0
0:3:56.795,1016.12,57.5023,0,0.000885,0,0
0:3:58.392,1022.64,57.8677,0,0.000885,0,0
0:4:0.009,1030.09,58.2883,0,0.000885,0,0
0:4:1.594,1037.02,58.6813,0,0.000885,0,0
0:4:3.192,1044.3,59.095,0,0.000885,0,0
0:4:4.805,1051.05,59.4742,0,0.000885,0,0
0:4:6.402,1058.68,59.9085,0,0.000885,0,0
0:4:7.986,1065.43,60.2878,0,0.000885,0,0
0:4:9.608,1072.65,60.7014,0,0.000885,0,0
0:4:11.195,1079.63,61.0944,0,0.000885,0,0
0:4:12.785,1086.74,61.4943,0,0.000885,0,0
0:4:14.414,1094.08,61.9149,0,0.000885,0,0
0:4:16.009,1100.18,62.2597,0,0.000885,0,0
0:4:17.607,1108.1,62.7078,0,0.000885,0,0
0:4:19.207,1114.74,63.0801,0,0.000885,0,0
0:4:20.806,1122.6,63.5283,0,0.000885,0,0
0:4:22.391,1129.06,63.8937,0,0.000885,0,0
0:4:23.994,1136.04,64.2867,0,0.000885,0,0
0:4:25.591,1143.26,64.6935,0,0.000885,0,0
0:4:27.191,1150.37,65.1003,0,0.000885,0,0
0:4:28.802,1156.82,65.4657,0,0.000885,0,0
0:4:30.406,1164.46,65.8932,0,0.000885,0,0
0:4:31.991,1171.55,66.2931,0,0.000885,0,0
0:4:33.582,1178.54,66.693,0,0.000885,0,0
0:4:35.203,1185.12,67.0653,0,0.000885,0,0
0:4:36.790,1192.69,67.4928,0,0.000885,0,0
0:4:38.389,1199.97,67.9065,0,0.000885,0,0
0:4:40.007,1206.89,68.2995,0,0.000885,0,0
0:4:41.605,1214.23,68.7132,0,0.000885,0,0
0:4:43.199,1220.81,69.0855,0,0.000885,0,0
0:4:44.820,1227.62,69.4716,0,0.000885,0,0
0:4:46.412,1234.84,69.8784,0,0.000885,0,0
0:4:48.001,1242.17,70.2921,0,0.000885,0,0
0:4:49.618,1249.22,70.6919,0,0.000885,0,0
0:4:51.217,1256.85,71.1263,0,0.000885,0,0
0:4:52.803,1263.18,71.4848,0,0.000885,0,0
0:4:54.411,1270.52,71.8985,0,0.000885,0,0
0:4:55.999,1277.57,72.2984,0,0.000885,0,0
0:4:57.597,1284.5,72.6845,0,0.000885,0,0
0:4:59.205,1292.07,73.1189,0,0.000885,0,0
0:5:0.811,1298.81,73.4981,0,0.000885,0,0
0:5:2.397,1305.74,73.8911,0,0.000885,0,0
0:5:4.007,1312.38,74.2634,0,0.000885,0,0
0:5:5.609,1320.01,74.6978,0,0.000885,0,0
0:5:7.195,1327.22,75.1046,0,0.000885,0,0
0:5:8.796,1334.39,75.5114,0,0.000885,0,0
0:5:10.395,1340.49,75.8561,0,0.000885,0,0
0:5:12.001,1348.06,76.2836,0,0.000885,0,0
0:5:13.600,1355.05,76.6835,0,0.000885,0,0
0:5:15.209,1362.5,77.1041,0,0.000885,0,0
0:5:16.796,1369.67,77.504,0,0.000885,0,0
0:5:18.394,1376.42,77.8901,0,0.000885,0,0
0:5:20.009,1383.46,78.29,0,0.000885,0,0
0:5:21.602,1391.21,78.7243,0,0.000885,0,0
0:5:23.213,1397.37,79.076,0,0.000885,0,0
0:5:24.822,1404.83,79.4966,0,0.000885,0,0
0:5:26.412,1411.7,79.8827,0,0.000885,0,0
0:5:28.009,1419.09,80.3032,0,0.000885,0,0
0:5:29.622,1426.72,80.7376,0,0.000885,0,0
0:5:31.211,1432.3,81.0548,0,0.000885,0,0
0:5:32.800,1440.17,81.496,0,0.000885,0,0
0:5:34.417,1447.21,81.8959,0,0.000885,0,0
0:5:36.013,1453.78,82.2682,0,0.000885,0,0
0:5:37.609,1461.06,82.6819,0,0.000885,0,0
0:5:39.211,1468.99,83.1301,0,0.000885,0,0
0:5:40.806,1474.79,83.4541,0,0.000885,0,0
0:5:42.405,1482.32,83.8816,0,0.000885,0,0
0:5:44.014,1490.33,84.3367,0,0.000885,0,0
0:5:45.612,1496.15,84.6676,0,0.000885,0,0
0:5:47.209,1503.75,85.0951,0,0.000885,0,0
0:5:48.817,1511.11,85.5088,0,0.000885,0,0
0:5:50.419,1517.47,85.8742,0,0.000885,0,0
0:5:52.006,1525.01,86.2948,0,0.000885,0,0
0:5:53.597,1531.37,86.6602,0,0.000885,0,0
0:5:55.204,1539.08,87.0946,0,0.000885,0,0
0:5:56.802,1546.62,87.522,0,0.000885,0,0
0:5:58.392,1552.63,87.8599,0,0.000885,0,0
0:6:0.004,1560.16,88.2874,0,0.000885,0,0
0:6:1.604,1567.11,88.6804,0,0.000885,0,0
0:6:3.213,1573.76,89.0596,0,0.000885,0,0
0:6:4.827,1581.53,89.4939,0,0.000885,0,0
0:6:6.414,1588.95,89.9145,0,0.000885,0,0
0:6:7.999,1595.2,90.2731,0,0.000885,0,0
0:6:9.621,1602.56,90.6867,0,0.000885,0,0
0:6:11.209,1609.74,91.0935,0,0.000885,0,0
0:6:12.809,1616.57,91.4796,0,0.000885,0,0
0:6:14.418,1623.93,91.8933,0,0.000885,0,0
0:6:16.014,1630.88,92.2863,0,0.000885,0,0
0:6:17.601,1637.59,92.6655,0,0.000885,0,0
0:6:19.207,1644.13,93.0379,0,0.000885,0,0
0:6:20.801,1651.37,93.4515,0,0.000885,0,0
0:6:22.399,1659.26,93.8928,0,0.000885,0,0
0:6:24.022,1666.33,94.2927,0,0.000885,0,0
0:6:25.619,1671.33,94.5754,0,0.000885,0,0
0:6:27.214,1669.27,94.4582,0,0.000885,0,0
0:6:28.807,1587.66,89.8456,0,0.000885,0,0
0:6:29.662,1406.35,79.5862,0,0.000885,0,0