Folder: Experiment-Files (part 39)

File: DataFile2021-06-09_072844.csv
Test ID:,Date Tested:,Time:,Test Type:,Diameter Avg. (mm):,Cyl. Corr. Factor:,Height (mm):,Age (days):,Weight (kN):,Break Type:,Ramp Rate (MPa/s):,Load at Break (kN):,Stress at Break (MPa):
12,6/9/2021,07:28,Cylinder,100,1,200,0,3.6,3,0.25,675.49,86.01
Sample Time,Load (kN),Stress (MPa),Long. Strain,Trans. Strain,Chan1 Deflection (mm),Chan2 Deflection (mm)
0:0:11.841,6.86361,0.875634,0,0.000885,0,0
0:0:13.330,8.74076,1.11006,0,0.000885,0,0
0:0:14.816,9.73716,1.24106,0,0.000885,0,0
0:0:16.318,13.1979,1.68232,0,0.000885,0,0
0:0:17.822,16.6586,2.12359,0,0.000885,0,0
0:0:19.328,19.412,2.47522,0,0.000885,0,0
0:0:20.819,23.0507,2.93717,0,0.000885,0,0
0:0:22.323,26.4536,3.36464,0,0.000885,0,0
0:0:23.839,28.562,3.63354,0,0.000885,0,0
0:0:25.328,31.6135,4.02654,0,0.000885,0,0
0:0:26.817,34.8385,4.43333,0,0.000885,0,0
0:0:28.334,38.0634,4.84701,0,0.000885,0,0
0:0:29.824,40.6434,5.17796,0,0.000885,0,0
0:0:31.317,43.9306,5.59165,0,0.000885,0,0
0:0:32.839,46.3905,5.90881,0,0.000885,0,0
0:0:34.337,49.5576,6.3087,0,0.000885,0,0
0:0:35.826,52.0798,6.63276,0,0.000885,0,0
0:0:37.325,54.8377,6.98439,0,0.000885,0,0
0:0:38.839,58.8277,7.48771,0,0.000885,0,0
0:0:40.331,61.2298,7.79797,0,0.000885,0,0
0:0:41.822,64.1033,8.16339,0,0.000885,0,0
0:0:43.335,66.6255,8.48055,0,0.000885,0,0
0:0:44.836,70.0284,8.91492,0,0.000885,0,0
0:0:46.329,73.3111,9.3355,0,0.000885,0,0
0:0:47.832,75.3662,9.5975,0,0.000885,0,0
0:0:49.340,78.8848,10.0457,0,0.000885,0,0
0:0:50.833,81.4647,10.3697,0,0.000885,0,0
0:0:52.325,84.2805,10.7282,0,0.000885,0,0
0:0:53.843,88.0348,11.2109,0,0.000885,0,0
0:0:55.336,90.4412,11.5142,0,0.000885,0,0
0:0:56.828,93.724,11.9348,0,0.000885,0,0
0:0:58.338,96.4819,12.2865,0,0.000885,0,0
0:0:59.835,99.6491,12.6864,0,0.000885,0,0
0:1:1.325,102.287,13.0242,0,0.000885,0,0
0:1:2.837,105.748,13.4655,0,0.000885,0,0
0:1:4.332,108.385,13.8033,0,0.000885,0,0
0:1:5.825,111.143,14.148,0,0.000885,0,0
0:1:7.324,114.253,14.5479,0,0.000885,0,0
0:1:8.836,116.89,14.8858,0,0.000885,0,0
0:1:10.330,119.119,15.1685,0,0.000885,0,0
0:1:11.822,122.873,15.6442,0,0.000885,0,0
0:1:13.342,125.805,16.0165,0,0.000885,0,0
0:1:14.842,128.442,16.3544,0,0.000885,0,0
0:1:16.332,131.845,16.7887,0,0.000885,0,0
0:1:17.832,134.194,17.0852,0,0.000885,0,0
0:1:19.339,137.944,17.5609,0,0.000885,0,0
0:1:20.830,140.235,17.8574,0,0.000885,0,0
0:1:22.330,143.695,18.2987,0,0.000885,0,0
0:1:23.838,146.275,18.6227,0,0.000885,0,0
0:1:25.333,149.794,19.0709,0,0.000885,0,0
0:1:26.823,152.552,19.4225,0,0.000885,0,0
0:1:28.343,155.541,19.8017,0,0.000885,0,0
0:1:29.844,158.65,20.2016,0,0.000885,0,0
0:1:31.335,161.346,20.5464,0,0.000885,0,0
0:1:32.836,164.397,20.9325,0,0.000885,0,0
0:1:34.345,167.213,21.291,0,0.000885,0,0
0:1:35.838,169.615,21.5944,0,0.000885,0,0
0:1:37.338,173.018,22.0287,0,0.000885,0,0
0:1:38.842,175.949,22.4011,0,0.000885,0,0
0:1:40.336,178.707,22.7527,0,0.000885,0,0
0:1:41.826,182.168,23.194,0,0.000885,0,0
0:1:43.341,184.748,23.5249,0,0.000885,0,0
0:1:44.837,187.622,23.8903,0,0.000885,0,0
0:1:46.331,190.322,24.2351,0,0.000885,0,0
0:1:47.837,193.489,24.635,0,0.000885,0,0
0:1:49.334,196.949,25.0762,0,0.000885,0,0
0:1:50.823,199.294,25.3727,0,0.000885,0,0
0:1:52.320,202.225,25.745,0,0.000885,0,0
0:1:53.829,205.334,26.1449,0,0.000885,0,0
0:1:55.329,208.092,26.4966,0,0.000885,0,0
0:1:56.829,211.024,26.8689,0,0.000885,0,0
0:1:58.335,213.604,27.1998,0,0.000885,0,0
0:1:59.826,216.891,27.6135,0,0.000885,0,0
0:2:1.329,220,28.0134,0,0.000885,0,0
0:2:2.832,223.283,28.4271,0,0.000885,0,0
0:2:4.326,226.334,28.8201,0,0.000885,0,0
0:2:5.829,229.675,29.2407,0,0.000885,0,0
0:2:7.328,231.61,29.4889,0,0.000885,0,0
0:2:8.834,235.129,29.937,0,0.000885,0,0
0:2:10.333,237.357,30.2197,0,0.000885,0,0
0:2:11.832,240.996,30.6817,0,0.000885,0,0
0:2:13.339,243.576,31.0126,0,0.000885,0,0
0:2:14.827,246.214,31.3505,0,0.000885,0,0
0:2:16.335,247.388,31.4953,0,0.000885,0,0
0:2:17.833,251.961,32.0813,0,0.000885,0,0
0:2:19.335,256.186,32.6191,0,0.000885,0,0
0:2:20.837,258.709,32.9363,0,0.000885,0,0
0:2:22.329,261.876,33.343,0,0.000885,0,0
0:2:23.834,264.691,33.7016,0,0.000885,0,0
0:2:25.322,266.8,33.9705,0,0.000885,0,0
0:2:26.836,269.794,34.3497,0,0.000885,0,0
0:2:28.333,272.547,34.7013,0,0.000885,0,0
0:2:29.832,274.896,34.9978,0,0.000885,0,0
0:2:31.331,278.766,35.4942,0,0.000885,0,0
0:2:32.839,282.987,36.032,0,0.000885,0,0
0:2:34.329,285.451,36.3423,0,0.000885,0,0
0:2:35.830,287.564,36.6112,0,0.000885,0,0
0:2:37.336,290.731,37.018,0,0.000885,0,0
0:2:38.838,293.196,37.3282,0,0.000885,0,0
0:2:40.329,296.656,37.7695,0,0.000885,0,0
0:2:41.831,300.055,38.2039,0,0.000885,0,0
0:2:43.337,302.341,38.4934,0,0.000885,0,0
0:2:44.835,305.744,38.9278,0,0.000885,0,0
0:2:46.333,308.969,39.3415,0,0.000885,0,0
0:2:47.842,311.611,39.6724,0,0.000885,0,0
0:2:49.331,315.597,40.1826,0,0.000885,0,0
0:2:50.832,319.471,40.6791,0,0.000885,0,0
0:2:52.338,320.405,40.7963,0,0.000885,0,0
0:2:53.839,323.928,41.2444,0,0.000885,0,0
0:2:55.338,325.334,41.4237,0,0.000885,0,0
0:2:56.832,329.969,42.0098,0,0.000885,0,0
0:2:58.340,333.31,42.4372,0,0.000885,0,0
0:2:59.837,335.365,42.6992,0,0.000885,0,0
0:3:1.336,337.709,42.9957,0,0.000885,0,0
0:3:2.838,340.703,43.3818,0,0.000885,0,0
0:3:4.331,343.514,43.7403,0,0.000885,0,0
0:3:5.827,346.975,44.1816,0,0.000885,0,0
0:3:7.338,350.026,44.5677,0,0.000885,0,0
0:3:8.833,352.197,44.8435,0,0.000885,0,0
0:3:10.335,355.893,45.3123,0,0.000885,0,0
0:3:11.834,358.06,45.5881,0,0.000885,0,0
0:3:13.338,361.347,46.0087,0,0.000885,0,0
0:3:14.839,364.687,46.4362,0,0.000885,0,0
0:3:16.329,367.797,46.8292,0,0.000885,0,0
0:3:17.846,370.083,47.1188,0,0.000885,0,0
0:3:19.337,373.313,47.5325,0,0.000885,0,0
0:3:20.840,376.186,47.8979,0,0.000885,0,0
0:3:22.334,378.766,48.2288,0,0.000885,0,0
0:3:23.838,382.342,48.6839,0,0.000885,0,0
0:3:25.340,384.865,49.001,0,0.000885,0,0
0:3:26.837,388.267,49.4354,0,0.000885,0,0
0:3:28.337,391.315,49.8215,0,0.000885,0,0
0:3:29.835,394.072,50.1731,0,0.000885,0,0
0:3:31.334,396.71,50.511,0,0.000885,0,0
0:3:32.845,399.646,50.8833,0,0.000885,0,0
0:3:34.341,402.813,51.2901,0,0.000885,0,0
0:3:35.829,405.451,51.621,0,0.000885,0,0
0:3:37.340,408.502,52.014,0,0.000885,0,0
0:3:38.836,411.376,52.3795,0,0.000885,0,0
0:3:40.338,414.601,52.7863,0,0.000885,0,0
0:3:41.839,417.648,53.1793,0,0.000885,0,0
0:3:43.341,420.348,53.5171,0,0.000885,0,0
0:3:44.824,422.755,53.8274,0,0.000885,0,0
0:3:46.336,426.504,54.3031,0,0.000885,0,0
0:3:47.835,429.32,54.6616,0,0.000885,0,0
0:3:49.341,432.256,55.034,0,0.000885,0,0
0:3:50.841,435.245,55.4201,0,0.000885,0,0
0:3:52.339,438.119,55.7855,0,0.000885,0,0
0:3:53.833,440.467,56.082,0,0.000885,0,0
0:3:55.344,443.986,56.5301,0,0.000885,0,0
0:3:56.836,446.917,56.9024,0,0.000885,0,0
0:3:58.341,450.2,57.323,0,0.000885,0,0
0:3:59.833,452.9,57.6677,0,0.000885,0,0
0:4:1.337,455.654,58.0125,0,0.000885,0,0
0:4:2.837,458.705,58.4055,0,0.000885,0,0
0:4:4.331,461.872,58.8054,0,0.000885,0,0
0:4:5.831,464.394,59.1294,0,0.000885,0,0
0:4:7.344,467.446,59.5155,0,0.000885,0,0
0:4:8.849,470.141,59.8603,0,0.000885,0,0
0:4:10.338,472.957,60.2188,0,0.000885,0,0
0:4:11.838,476.302,60.6463,0,0.000885,0,0
0:4:13.344,479.701,61.0807,0,0.000885,0,0
0:4:14.843,482.223,61.3978,0,0.000885,0,0
0:4:16.334,484.981,61.7494,0,0.000885,0,0
0:4:17.852,488.206,62.1631,0,0.000885,0,0
0:4:19.346,490.786,62.4872,0,0.000885,0,0
0:4:20.834,493.601,62.8457,0,0.000885,0,0
0:4:22.335,496.889,63.2663,0,0.000885,0,0
0:4:23.840,499.936,63.6524,0,0.000885,0,0
0:4:25.340,502.809,64.0178,0,0.000885,0,0
0:4:26.827,505.509,64.3626,0,0.000885,0,0
0:4:28.331,508.676,64.7693,0,0.000885,0,0
0:4:29.831,511.608,65.1417,0,0.000885,0,0
0:4:31.344,515.011,65.576,0,0.000885,0,0
0:4:32.850,517.413,65.8794,0,0.000885,0,0
0:4:34.344,520.349,66.2517,0,0.000885,0,0
0:4:35.832,523.516,66.6585,0,0.000885,0,0
0:4:37.346,526.798,67.0722,0,0.000885,0,0
0:4:38.849,529.672,67.4376,0,0.000885,0,0
0:4:40.337,532.136,67.7548,0,0.000885,0,0
0:4:41.837,534.832,68.0995,0,0.000885,0,0
0:4:43.346,539.058,68.6373,0,0.000885,0,0
0:4:44.845,541.166,68.9062,0,0.000885,0,0
0:4:46.334,544.218,69.2923,0,0.000885,0,0
0:4:47.835,547.211,69.6715,0,0.000885,0,0
0:4:49.343,549.849,70.0094,0,0.000885,0,0
0:4:50.844,552.723,70.3748,0,0.000885,0,0
0:4:52.347,555.774,70.7609,0,0.000885,0,0
0:4:53.854,559.115,71.1884,0,0.000885,0,0
0:4:55.346,561.873,71.54,0,0.000885,0,0
0:4:56.845,564.395,71.8641,0,0.000885,0,0
0:4:58.344,567.504,72.2571,0,0.000885,0,0
0:4:59.842,570.2,72.6018,0,0.000885,0,0
0:5:1.350,573.603,73.0362,0,0.000885,0,0
0:5:2.851,576.125,73.3533,0,0.000885,0,0
0:5:4.346,579.35,73.767,0,0.000885,0,0
0:5:5.833,581.756,74.0704,0,0.000885,0,0
0:5:7.350,585.39,74.5323,0,0.000885,0,0
0:5:8.852,588.322,74.9046,0,0.000885,0,0
0:5:10.335,591.845,75.3528,0,0.000885,0,0
0:5:11.845,594.367,75.6769,0,0.000885,0,0
0:5:13.352,597.183,76.0354,0,0.000885,0,0
0:5:14.847,599.945,76.387,0,0.000885,0,0
0:5:16.341,603.054,76.78,0,0.000885,0,0
0:5:17.859,605.99,77.1592,0,0.000885,0,0
0:5:19.362,608.69,77.504,0,0.000885,0,0
0:5:20.847,612.213,77.9521,0,0.000885,0,0
0:5:22.351,614.206,78.2003,0,0.000885,0,0
0:5:23.855,616.319,78.4692,0,0.000885,0,0
0:5:25.342,620.607,79.0208,0,0.000885,0,0
0:5:26.838,620.723,79.0346,0,0.000885,0,0
0:5:28.347,626.181,79.731,0,0.000885,0,0
0:5:29.839,627.181,79.8551,0,0.000885,0,0
0:5:31.337,633.342,80.6411,0,0.000885,0,0
0:5:32.843,636.807,81.0823,0,0.000885,0,0
0:5:34.348,640.037,81.4891,0,0.000885,0,0
0:5:35.842,642.737,81.8339,0,0.000885,0,0
0:5:37.350,644.205,82.02,0,0.000885,0,0
0:5:38.852,646.549,82.3234,0,0.000885,0,0
0:5:40.349,649.605,82.7095,0,0.000885,0,0
0:5:41.844,652.363,83.0611,0,0.000885,0,0
0:5:43.355,655.708,83.4886,0,0.000885,0,0
0:5:44.847,658.702,83.8678,0,0.000885,0,0
0:5:46.342,660.992,84.1574,0,0.000885,0,0
0:5:47.855,664.28,84.578,0,0.000885,0,0
0:5:49.353,663.75,84.509,0,0.000885,0,0
0:5:50.850,667.976,85.0468,0,0.000885,0,0
0:5:52.336,670.383,85.3571,0,0.000885,0,0
0:5:53.852,674.786,85.9156,0,0.000885,0,0
0:5:55.357,665.218,84.6952,0,0.000885,0,0
0:5:56.849,643.733,81.9649,0,0.000885,0,0
0:5:57.723,588.5,74.9322,0,0.000885,0,0

File: DataFile2021-06-09_073949.csv
Test ID:,Date Tested:,Time:,Test Type:,Diameter Avg. (mm):,Cyl. Corr. Factor:,Height (mm):,Age (days):,Weight (kN):,Break Type:,Ramp Rate (MPa/s):,Load at Break (kN):,Stress at Break (MPa):
12,6/9/2021,07:39,Cylinder,100,1,200,0,3.6,3,0.25,535.54,68.19
Sample Time,Load (kN),Stress (MPa),Long. Strain,Trans. Strain,Chan1 Deflection (mm),Chan2 Deflection (mm)
0:0:13.831,5.10211,0.648107,0,0.000885,0,0
0:0:15.023,11.4364,1.45479,0,0.000885,0,0
0:0:16.209,10.262,1.31,0,0.000885,0,0
0:0:17.401,11.4942,1.46169,0,0.000885,0,0
0:0:18.604,13.6071,1.73058,0,0.000885,0,0
0:0:19.811,16.6586,2.12359,0,0.000885,0,0
0:0:21.017,19.2386,2.44764,0,0.000885,0,0
0:0:22.214,22.1121,2.81306,0,0.000885,0,0
0:0:23.404,24.1049,3.06817,0,0.000885,0,0
0:0:24.609,26.3335,3.35085,0,0.000885,0,0
0:0:25.822,29.207,3.71627,0,0.000885,0,0
0:0:27.014,31.142,3.96449,0,0.000885,0,0
0:0:28.210,33.7842,4.30233,0,0.000885,0,0
0:0:29.406,35.8927,4.57122,0,0.000885,0,0
0:0:30.618,38.2414,4.8677,0,0.000885,0,0
0:0:31.816,40.5277,5.15728,0,0.000885,0,0
0:0:33.010,42.872,5.46065,0,0.000885,0,0
0:0:34.208,45.1005,5.74333,0,0.000885,0,0
0:0:35.421,47.7428,6.08118,0,0.000885,0,0
0:0:36.616,49.4998,6.30181,0,0.000885,0,0
0:0:37.808,52.3155,6.66034,0,0.000885,0,0
0:0:39.005,54.8377,6.98439,0,0.000885,0,0
0:0:40.220,56.7727,7.22571,0,0.000885,0,0
0:0:41.417,59.8241,7.61871,0,0.000885,0,0
0:0:42.615,61.8169,7.87381,0,0.000885,0,0
0:0:43.808,64.0455,8.1565,0,0.000885,0,0
0:0:45.020,66.7456,8.50124,0,0.000885,0,0
0:0:46.225,68.7962,8.75634,0,0.000885,0,0
0:0:47.417,71.0826,9.05282,0,0.000885,0,0
0:0:48.613,73.3734,9.3424,0,0.000885,0,0
0:0:49.819,75.4819,9.61129,0,0.000885,0,0
0:0:51.024,78.1241,9.94913,0,0.000885,0,0
0:0:52.222,80.7041,10.2732,0,0.000885,0,0
0:0:53.417,83.1684,10.5903,0,0.000885,0,0
0:0:54.620,85.3347,10.8661,0,0.000885,0,0
0:0:55.829,87.5054,11.1419,0,0.000885,0,0
0:0:57.024,90.0276,11.466,0,0.000885,0,0
0:0:58.217,92.3139,11.7556,0,0.000885,0,0
0:0:59.413,94.6048,12.0451,0,0.000885,0,0
0:1:0.628,96.7755,12.3209,0,0.000885,0,0
0:1:1.827,99.8225,12.707,0,0.000885,0,0
0:1:3.019,101.642,12.9415,0,0.000885,0,0
0:1:4.223,104.164,13.2655,0,0.000885,0,0
0:1:5.434,106.566,13.5689,0,0.000885,0,0
0:1:6.628,109.266,13.9136,0,0.000885,0,0
0:1:7.818,110.614,14.086,0,0.000885,0,0
0:1:9.013,113.839,14.4928,0,0.000885,0,0
0:1:10.227,115.894,14.7548,0,0.000885,0,0
0:1:11.423,118.474,15.0857,0,0.000885,0,0
0:1:12.621,120.88,15.3891,0,0.000885,0,0
0:1:13.815,123.109,15.6718,0,0.000885,0,0
0:1:15.024,125.102,15.9269,0,0.000885,0,0
0:1:16.229,127.86,16.2785,0,0.000885,0,0
0:1:17.423,129.617,16.506,0,0.000885,0,0
0:1:18.614,132.432,16.8646,0,0.000885,0,0
0:1:19.820,134.488,17.1266,0,0.000885,0,0
0:1:21.029,137.361,17.492,0,0.000885,0,0
0:1:22.219,139.354,17.7402,0,0.000885,0,0
0:1:23.416,141.347,17.9953,0,0.000885,0,0
0:1:24.623,144.278,18.3676,0,0.000885,0,0
0:1:25.827,146.511,18.6572,0,0.000885,0,0
0:1:27.024,148.677,18.933,0,0.000885,0,0
0:1:28.220,150.968,19.2226,0,0.000885,0,0
0:1:29.418,153.722,19.5742,0,0.000885,0,0
0:1:30.633,156.07,19.8707,0,0.000885,0,0
0:1:31.828,158.824,20.2223,0,0.000885,0,0
0:1:33.019,160.937,20.4912,0,0.000885,0,0
0:1:34.213,162.756,20.7256,0,0.000885,0,0
0:1:35.429,165.572,21.0842,0,0.000885,0,0
0:1:36.625,167.858,21.3737,0,0.000885,0,0
0:1:37.820,170.202,21.6702,0,0.000885,0,0
0:1:39.017,172.667,21.9874,0,0.000885,0,0
0:1:40.231,175.304,22.3183,0,0.000885,0,0
0:1:41.426,177.066,22.5459,0,0.000885,0,0
0:1:42.621,178.943,22.7803,0,0.000885,0,0
0:1:43.812,182.052,23.1802,0,0.000885,0,0
0:1:45.026,183.987,23.4284,0,0.000885,0,0
0:1:46.229,186.745,23.78,0,0.000885,0,0
0:1:47.419,188.444,23.9938,0,0.000885,0,0
0:1:48.617,191.376,24.3661,0,0.000885,0,0
0:1:49.820,194.014,24.7039,0,0.000885,0,0
0:1:51.016,196.536,25.0211,0,0.000885,0,0
0:1:52.204,198.355,25.2555,0,0.000885,0,0
0:1:53.409,200.877,25.5795,0,0.000885,0,0
0:1:54.605,202.99,25.8484,0,0.000885,0,0
0:1:55.810,205.161,26.1242,0,0.000885,0,0
0:1:57.009,208.092,26.4966,0,0.000885,0,0
0:1:58.198,210.436,26.793,0,0.000885,0,0
0:1:59.394,212.843,27.1033,0,0.000885,0,0
0:2:0.596,214.484,27.3101,0,0.000885,0,0
0:2:1.777,217.536,27.6962,0,0.000885,0,0
0:2:2.962,219.471,27.9445,0,0.000885,0,0
0:2:4.150,221.642,28.2202,0,0.000885,0,0
0:2:5.356,224.164,28.5443,0,0.000885,0,0
0:2:6.544,226.392,28.827,0,0.000885,0,0
0:2:7.732,229.03,29.1579,0,0.000885,0,0
0:2:8.916,231.201,29.4406,0,0.000885,0,0
0:2:10.117,233.487,29.7302,0,0.000885,0,0
0:2:11.311,235.542,29.9922,0,0.000885,0,0
0:2:12.507,238.474,30.3645,0,0.000885,0,0
0:2:13.697,240.524,30.6265,0,0.000885,0,0
0:2:14.902,243.634,31.0195,0,0.000885,0,0
0:2:16.094,245.804,31.2953,0,0.000885,0,0
0:2:17.285,247.739,31.5435,0,0.000885,0,0
0:2:18.472,249.732,31.7986,0,0.000885,0,0
0:2:19.672,252.196,32.1089,0,0.000885,0,0
0:2:20.865,254.545,32.4123,0,0.000885,0,0
0:2:22.053,257.183,32.7432,0,0.000885,0,0
0:2:23.240,259.705,33.0673,0,0.000885,0,0
0:2:24.425,261.168,33.2534,0,0.000885,0,0
0:2:25.632,263.575,33.5568,0,0.000885,0,0
0:2:26.821,266.506,33.936,0,0.000885,0,0
0:2:28.011,268.677,34.2118,0,0.000885,0,0
0:2:29.205,270.963,34.5014,0,0.000885,0,0
0:2:30.408,273.899,34.8737,0,0.000885,0,0
0:2:31.611,275.541,35.0805,0,0.000885,0,0
0:2:32.804,277.654,35.3494,0,0.000885,0,0
0:2:34.001,280.465,35.7079,0,0.000885,0,0
0:2:35.209,283.281,36.0665,0,0.000885,0,0
0:2:36.415,284.984,36.2871,0,0.000885,0,0
0:2:37.601,287.68,36.6318,0,0.000885,0,0
0:2:38.785,289.966,36.9214,0,0.000885,0,0
0:2:39.988,291.906,37.1696,0,0.000885,0,0
0:2:41.183,294.423,37.4868,0,0.000885,0,0
0:2:42.368,296.536,37.7557,0,0.000885,0,0
0:2:43.550,298.823,38.0453,0,0.000885,0,0
0:2:44.756,301.581,38.3969,0,0.000885,0,0
0:2:45.948,303.516,38.6451,0,0.000885,0,0
0:2:47.130,306.567,39.0312,0,0.000885,0,0
0:2:48.316,308.969,39.3415,0,0.000885,0,0
0:2:49.515,311.082,39.6104,0,0.000885,0,0
0:2:50.707,313.488,39.9137,0,0.000885,0,0
0:2:51.893,315.481,40.1689,0,0.000885,0,0
0:2:53.112,317.532,40.4309,0,0.000885,0,0
0:2:54.299,320.29,40.7825,0,0.000885,0,0
0:2:55.503,323.105,41.141,0,0.000885,0,0
0:2:56.690,324.395,41.3065,0,0.000885,0,0
0:2:57.874,327.447,41.6926,0,0.000885,0,0
0:2:59.069,329.555,41.9615,0,0.000885,0,0
0:3:0.273,332.14,42.2924,0,0.000885,0,0
0:3:1.457,334.075,42.5338,0,0.000885,0,0
0:3:2.640,336.948,42.8992,0,0.000885,0,0
0:3:3.827,338.763,43.1336,0,0.000885,0,0
0:3:5.033,342.05,43.5542,0,0.000885,0,0
0:3:6.219,343.514,43.7403,0,0.000885,0,0
0:3:7.405,345.863,44.0368,0,0.000885,0,0
0:3:8.612,348.091,44.3195,0,0.000885,0,0
0:3:9.814,351.08,44.6987,0,0.000885,0,0
0:3:11.015,352.842,44.9262,0,0.000885,0,0
0:3:12.201,355.422,45.2503,0,0.000885,0,0
0:3:13.383,357.535,45.5192,0,0.000885,0,0
0:3:14.590,360.115,45.8501,0,0.000885,0,0
0:3:15.782,362.637,46.1742,0,0.000885,0,0
0:3:16.967,365.039,46.4776,0,0.000885,0,0
0:3:18.157,367.561,46.8016,0,0.000885,0,0
0:3:19.355,369.732,47.0774,0,0.000885,0,0
0:3:20.550,371.373,47.2842,0,0.000885,0,0
0:3:21.739,373.664,47.5738,0,0.000885,0,0
0:3:22.921,376.769,47.9737,0,0.000885,0,0
0:3:24.115,378.997,48.2564,0,0.000885,0,0
0:3:25.319,380.643,48.4632,0,0.000885,0,0
0:3:26.512,383.575,48.8356,0,0.000885,0,0
0:3:27.718,385.625,49.0976,0,0.000885,0,0
0:3:28.904,388.032,49.4078,0,0.000885,0,0
0:3:30.109,390.202,49.6836,0,0.000885,0,0
0:3:31.306,393.312,50.0766,0,0.000885,0,0
0:3:32.494,395.482,50.3524,0,0.000885,0,0
0:3:33.683,397.297,50.5868,0,0.000885,0,0
0:3:34.888,399.82,50.904,0,0.000885,0,0
0:3:36.078,402.342,51.228,0,0.000885,0,0
0:3:37.261,404.57,51.5107,0,0.000885,0,0
0:3:38.448,406.741,51.7865,0,0.000885,0,0
0:3:39.653,408.969,52.0692,0,0.000885,0,0
0:3:40.844,411.785,52.4277,0,0.000885,0,0
0:3:42.030,413.956,52.7035,0,0.000885,0,0
0:3:43.226,416.358,53.0138,0,0.000885,0,0
0:3:44.425,418.88,53.3309,0,0.000885,0,0
0:3:45.618,420.699,53.5654,0,0.000885,0,0
0:3:46.813,423.164,53.8756,0,0.000885,0,0
0:3:47.997,426.095,54.2548,0,0.000885,0,0
0:3:49.193,428.15,54.5168,0,0.000885,0,0
0:3:50.395,430.788,54.8478,0,0.000885,0,0
0:3:51.579,432.839,55.1098,0,0.000885,0,0
0:3:52.764,435.067,55.3925,0,0.000885,0,0
0:3:53.963,437.3,55.6752,0,0.000885,0,0
0:3:55.160,440.054,56.0268,0,0.000885,0,0
0:3:56.343,442.34,56.3233,0,0.000885,0,0
0:3:57.530,444.569,56.606,0,0.000885,0,0
0:3:58.718,446.802,56.8886,0,0.000885,0,0
0:3:59.924,448.737,57.1369,0,0.000885,0,0
0:4:1.121,451.259,57.454,0,0.000885,0,0
0:4:2.323,453.839,57.785,0,0.000885,0,0
0:4:3.524,456.592,58.1366,0,0.000885,0,0
0:4:4.730,458.532,58.3848,0,0.000885,0,0
0:4:5.921,460.991,58.6951,0,0.000885,0,0
0:4:7.122,463.047,58.9571,0,0.000885,0,0
0:4:8.321,465.217,59.2329,0,0.000885,0,0
0:4:9.525,467.913,59.5776,0,0.000885,0,0
0:4:10.724,470.377,59.8879,0,0.000885,0,0
0:4:11.921,473.015,60.2257,0,0.000885,0,0
0:4:13.125,474.776,60.4532,0,0.000885,0,0
0:4:14.325,477.414,60.7842,0,0.000885,0,0
0:4:15.521,479.701,61.0807,0,0.000885,0,0
0:4:16.727,481.991,61.3702,0,0.000885,0,0
0:4:17.928,484.394,61.6736,0,0.000885,0,0
0:4:19.127,486.564,61.9494,0,0.000885,0,0
0:4:20.328,488.677,62.2183,0,0.000885,0,0
0:4:21.521,491.315,62.5561,0,0.000885,0,0
0:4:22.728,493.601,62.8457,0,0.000885,0,0
0:4:23.926,496.711,63.2456,0,0.000885,0,0
0:4:25.120,498.294,63.4456,0,0.000885,0,0
0:4:26.326,500.229,63.6938,0,0.000885,0,0
0:4:27.521,503.396,64.0937,0,0.000885,0,0
0:4:28.730,505.625,64.3763,0,0.000885,0,0
0:4:29.935,508.267,64.7142,0,0.000885,0,0
0:4:31.130,510.14,64.9555,0,0.000885,0,0
0:4:32.322,512.604,65.2658,0,0.000885,0,0
0:4:33.529,515.184,65.5967,0,0.000885,0,0
0:4:34.733,517.003,65.8242,0,0.000885,0,0
0:4:35.930,519.41,66.1345,0,0.000885,0,0
0:4:37.127,522.226,66.493,0,0.000885,0,0
0:4:38.322,524.686,66.8033,0,0.000885,0,0
0:4:39.533,526.683,67.0584,0,0.000885,0,0
0:4:40.729,528.618,67.3066,0,0.000885,0,0
0:4:41.923,531.665,67.6927,0,0.000885,0,0
0:4:43.124,534.129,68.0099,0,0.000885,0,0
0:4:44.330,529.73,67.4445,0,0.000885,0,0
0:4:45.528,531.958,67.7341,0,0.000885,0,0
0:4:46.728,535.833,68.2236,0,0.000885,0,0
0:4:47.923,490.906,62.501,0,0.000885,0,0
0:4:49.127,478.646,60.9428,0,0.000885,0,0
0:4:50.328,477.414,60.7842,0,0.000885,0,0
0:4:51.520,413.836,52.6897,0,0.000885,0,0
0:4:52.725,392.667,49.9939,0,0.000885,0,0
0:4:53.672,376.124,47.891,0,0.000885,0,0