Folder: Experiment-Files (part 19)

File: DataFile2021-06-07_080652.csv
Test ID:,Date Tested:,Time:,Test Type:,Diameter Avg. (mm):,Cyl. Corr. Factor:,Height (mm):,Age (days):,Weight (kN):,Break Type:,Ramp Rate (MPa/s):,Load at Break (kN):,Stress at Break (MPa):
12,6/7/2021,08:06,Cylinder,100,1,200,0,3.6,3,0.25,786.31,100.12
Sample Time,Load (kN),Stress (MPa),Long. Strain,Trans. Strain,Chan1 Deflection (mm),Chan2 Deflection (mm)
0:0:17.418,5.04428,0.641212,0,0.000885,0,0
0:0:19.105,9.44357,1.19969,0,0.000885,0,0
0:0:20.790,10.7336,1.36516,0,0.000885,0,0
0:0:22.484,16.0714,2.04774,0,0.000885,0,0
0:0:24.199,19.5321,2.48901,0,0.000885,0,0
0:0:25.886,21.2314,2.70274,0,0.000885,0,0
0:0:27.578,24.9857,3.17848,0,0.000885,0,0
0:0:29.298,28.3886,3.61285,0,0.000885,0,0
0:0:30.987,31.7292,4.04033,0,0.000885,0,0
0:0:32.680,35.0164,4.46091,0,0.000885,0,0
0:0:34.398,38.357,4.88149,0,0.000885,0,0
0:0:36.088,41.582,5.29517,0,0.000885,0,0
0:0:37.779,44.9849,5.72954,0,0.000885,0,0
0:0:39.496,48.6191,6.19149,0,0.000885,0,0
0:0:41.187,52.0798,6.63276,0,0.000885,0,0
0:0:42.886,54.8955,6.99128,0,0.000885,0,0
0:0:44.596,58.7699,7.48081,0,0.000885,0,0
0:0:46.287,62.0527,7.90139,0,0.000885,0,0
0:0:47.984,65.2777,8.30818,0,0.000885,0,0
0:0:49.697,68.7962,8.75634,0,0.000885,0,0
0:0:51.392,71.6697,9.12866,0,0.000885,0,0
0:0:53.088,75.1883,9.57682,0,0.000885,0,0
0:0:54.797,78.7068,10.025,0,0.000885,0,0
0:0:56.493,81.5848,10.3904,0,0.000885,0,0
0:0:58.189,85.4548,10.8799,0,0.000885,0,0
0:0:59.900,88.444,11.2591,0,0.000885,0,0
0:1:1.595,92.4919,11.7762,0,0.000885,0,0
0:1:3.300,95.014,12.1003,0,0.000885,0,0
0:1:5.002,98.9418,12.5967,0,0.000885,0,0
0:1:6.695,101.935,12.9759,0,0.000885,0,0
0:1:8.403,105.57,13.4448,0,0.000885,0,0
0:1:10.104,108.385,13.8033,0,0.000885,0,0
0:1:11.799,112.375,14.3066,0,0.000885,0,0
0:1:13.505,115.422,14.6996,0,0.000885,0,0
0:1:15.205,118.238,15.0581,0,0.000885,0,0
0:1:16.901,121.699,15.4925,0,0.000885,0,0
0:1:18.605,125.102,15.9269,0,0.000885,0,0
0:1:20.303,128.033,16.2992,0,0.000885,0,0
0:1:22.000,132.139,16.8232,0,0.000885,0,0
0:1:23.710,134.839,17.1679,0,0.000885,0,0
0:1:25.408,138.767,17.6713,0,0.000885,0,0
0:1:27.100,141.698,18.0436,0,0.000885,0,0
0:1:28.811,145.101,18.4779,0,0.000885,0,0
0:1:30.510,148.677,18.933,0,0.000885,0,0
0:1:32.201,151.965,19.3467,0,0.000885,0,0
0:1:33.915,155.719,19.8293,0,0.000885,0,0
0:1:35.613,158.472,20.1741,0,0.000885,0,0
0:1:37.302,162.111,20.6429,0,0.000885,0,0
0:1:39.020,165.278,21.0428,0,0.000885,0,0
0:1:40.712,168.739,21.4841,0,0.000885,0,0
0:1:42.401,171.844,21.8771,0,0.000885,0,0
0:1:44.117,175.482,22.3459,0,0.000885,0,0
0:1:45.812,179.179,22.8148,0,0.000885,0,0
0:1:47.501,181.817,23.1526,0,0.000885,0,0
0:1:49.214,185.042,23.5594,0,0.000885,0,0
0:1:50.910,188.68,24.0213,0,0.000885,0,0
0:1:52.603,192.021,24.4488,0,0.000885,0,0
0:1:54.306,194.952,24.8211,0,0.000885,0,0
0:1:55.987,198.591,25.2831,0,0.000885,0,0
0:1:57.667,201.642,25.6761,0,0.000885,0,0
0:1:59.367,205.748,26.1932,0,0.000885,0,0
0:2:1.055,208.737,26.5793,0,0.000885,0,0
0:2:2.751,211.669,26.9516,0,0.000885,0,0
0:2:4.455,215.072,27.386,0,0.000885,0,0
0:2:6.146,218.474,27.8135,0,0.000885,0,0
0:2:7.861,222.518,28.3306,0,0.000885,0,0
0:2:9.564,225.218,28.6753,0,0.000885,0,0
0:2:11.259,228.501,29.0959,0,0.000885,0,0
0:2:12.945,232.082,29.5509,0,0.000885,0,0
0:2:14.641,236.067,30.0542,0,0.000885,0,0
0:2:16.344,238.709,30.3921,0,0.000885,0,0
0:2:18.051,242.344,30.854,0,0.000885,0,0
0:2:19.761,244.866,31.1781,0,0.000885,0,0
0:2:21.445,248.442,31.6331,0,0.000885,0,0
0:2:23.145,252.432,32.1434,0,0.000885,0,0
0:2:24.850,255.541,32.5364,0,0.000885,0,0
0:2:26.544,258.357,32.8949,0,0.000885,0,0
0:2:28.261,262.169,33.3775,0,0.000885,0,0
0:2:29.956,265.688,33.8257,0,0.000885,0,0
0:2:31.662,268.677,34.2118,0,0.000885,0,0
0:2:33.361,272.253,34.6668,0,0.000885,0,0
0:2:35.067,274.953,35.0116,0,0.000885,0,0
0:2:36.751,278.65,35.4804,0,0.000885,0,0
0:2:38.447,282.342,35.9493,0,0.000885,0,0
0:2:40.164,284.984,36.2871,0,0.000885,0,0
0:2:41.859,288.445,36.7284,0,0.000885,0,0
0:2:43.562,292.902,37.2937,0,0.000885,0,0
0:2:45.261,294.837,37.542,0,0.000885,0,0
0:2:46.938,298.649,38.0246,0,0.000885,0,0
0:2:48.649,301.99,38.4521,0,0.000885,0,0
0:2:50.340,305.508,38.9002,0,0.000885,0,0
0:2:52.040,308.502,39.2794,0,0.000885,0,0
0:2:53.749,311.843,39.7069,0,0.000885,0,0
0:2:55.450,315.13,40.1206,0,0.000885,0,0
0:2:57.163,318.648,40.5688,0,0.000885,0,0
0:2:58.857,321.873,40.9824,0,0.000885,0,0
0:3:0.546,325.392,41.4306,0,0.000885,0,0
0:3:2.226,329.146,41.9063,0,0.000885,0,0
0:3:3.924,331.846,42.2511,0,0.000885,0,0
0:3:5.618,335.245,42.6854,0,0.000885,0,0
0:3:7.298,339.057,43.1681,0,0.000885,0,0
0:3:9.005,342.286,43.5818,0,0.000885,0,0
0:3:10.682,345.275,43.961,0,0.000885,0,0
0:3:12.356,348.207,44.3333,0,0.000885,0,0
0:3:14.065,352.077,44.8297,0,0.000885,0,0
0:3:15.763,356.009,45.3261,0,0.000885,0,0
0:3:17.453,358.295,45.6226,0,0.000885,0,0
0:3:19.157,361.872,46.0777,0,0.000885,0,0
0:3:20.855,365.159,46.4913,0,0.000885,0,0
0:3:22.551,368.913,46.974,0,0.000885,0,0
0:3:24.255,371.787,47.3394,0,0.000885,0,0
0:3:25.965,375.479,47.8082,0,0.000885,0,0
0:3:27.665,379.117,48.2702,0,0.000885,0,0
0:3:29.361,381.52,48.5736,0,0.000885,0,0
0:3:31.065,385.51,49.0838,0,0.000885,0,0
0:3:32.761,388.383,49.4492,0,0.000885,0,0
0:3:34.470,391.492,49.8491,0,0.000885,0,0
0:3:36.157,395.247,50.3248,0,0.000885,0,0
0:3:37.855,398.53,50.7454,0,0.000885,0,0
0:3:39.559,401.581,51.1315,0,0.000885,0,0
0:3:41.259,405.509,51.6279,0,0.000885,0,0
0:3:42.969,408.796,52.0485,0,0.000885,0,0
0:3:44.667,411.785,52.4277,0,0.000885,0,0
0:3:46.367,415.419,52.8897,0,0.000885,0,0
0:3:48.067,419.058,53.3585,0,0.000885,0,0
0:3:49.762,422.047,53.7377,0,0.000885,0,0
0:3:51.463,425.566,54.1859,0,0.000885,0,0
0:3:53.163,428.617,54.572,0,0.000885,0,0
0:3:54.862,431.549,54.9443,0,0.000885,0,0
0:3:56.563,435.481,55.4476,0,0.000885,0,0
0:3:58.264,438.47,55.8268,0,0.000885,0,0
0:3:59.963,441.989,56.275,0,0.000885,0,0
0:4:1.654,445.334,56.7025,0,0.000885,0,0
0:4:3.348,448.501,57.1024,0,0.000885,0,0
0:4:5.057,451.904,57.5367,0,0.000885,0,0
0:4:6.754,455.422,57.9849,0,0.000885,0,0
0:4:8.465,458.354,58.3572,0,0.000885,0,0
0:4:10.162,462.344,58.8674,0,0.000885,0,0
0:4:11.857,465.039,59.2122,0,0.000885,0,0
0:4:13.557,468.736,59.681,0,0.000885,0,0
0:4:15.265,472.134,60.1154,0,0.000885,0,0
0:4:16.970,475.479,60.5429,0,0.000885,0,0
0:4:18.679,478.882,60.9703,0,0.000885,0,0
0:4:20.376,481.871,61.3564,0,0.000885,0,0
0:4:22.061,485.51,61.8184,0,0.000885,0,0
0:4:23.765,488.384,62.1838,0,0.000885,0,0
0:4:25.467,492.431,62.7009,0,0.000885,0,0
0:4:27.145,495.479,63.087,0,0.000885,0,0
0:4:28.847,498.703,63.4938,0,0.000885,0,0
0:4:30.528,501.813,63.8937,0,0.000885,0,0
0:4:32.209,505.509,64.3626,0,0.000885,0,0
0:4:33.908,508.85,64.79,0,0.000885,0,0
0:4:35.591,512.431,65.2451,0,0.000885,0,0
0:4:37.269,514.953,65.5622,0,0.000885,0,0
0:4:38.976,519.116,66.0931,0,0.000885,0,0
0:4:40.652,521.696,66.4241,0,0.000885,0,0
0:4:42.374,525.099,66.8585,0,0.000885,0,0
0:4:44.079,528.791,67.3273,0,0.000885,0,0
0:4:45.774,532.136,67.7548,0,0.000885,0,0
0:4:47.452,535.303,68.1547,0,0.000885,0,0
0:4:49.157,538.706,68.589,0,0.000885,0,0
0:4:50.847,542.047,69.0165,0,0.000885,0,0
0:4:52.525,545.214,69.4164,0,0.000885,0,0
0:4:54.236,549.084,69.9128,0,0.000885,0,0
0:4:55.915,551.958,70.2783,0,0.000885,0,0
0:4:57.605,555.303,70.7057,0,0.000885,0,0
0:4:59.303,558.648,71.1263,0,0.000885,0,0
0:5:0.982,562.108,71.5676,0,0.000885,0,0
0:5:2.669,565.213,71.9675,0,0.000885,0,0
0:5:4.367,568.38,72.3674,0,0.000885,0,0
0:5:6.065,571.899,72.8155,0,0.000885,0,0
0:5:7.774,575.36,73.2568,0,0.000885,0,0
0:5:9.472,578.469,73.6498,0,0.000885,0,0
0:5:11.149,582.339,74.1462,0,0.000885,0,0
0:5:12.837,584.861,74.4703,0,0.000885,0,0
0:5:14.533,588.615,74.946,0,0.000885,0,0
0:5:16.215,591.725,75.339,0,0.000885,0,0
0:5:17.907,595.132,75.7734,0,0.000885,0,0
0:5:19.614,598.477,76.2009,0,0.000885,0,0
0:5:21.304,601.413,76.5732,0,0.000885,0,0
0:5:23.005,605.052,77.0351,0,0.000885,0,0
0:5:24.700,608.868,77.5247,0,0.000885,0,0
0:5:26.388,611.568,77.8694,0,0.000885,0,0
0:5:28.087,614.62,78.2555,0,0.000885,0,0
0:5:29.785,618.552,78.7588,0,0.000885,0,0
0:5:31.472,622.191,79.2208,0,0.000885,0,0
0:5:33.169,624.713,79.5379,0,0.000885,0,0
0:5:34.868,628.471,80.0206,0,0.000885,0,0
0:5:36.563,631.287,80.3791,0,0.000885,0,0
0:5:38.270,635.633,80.9307,0,0.000885,0,0
0:5:39.960,638.627,81.3099,0,0.000885,0,0
0:5:41.679,641.914,81.7305,0,0.000885,0,0
0:5:43.385,645.023,82.1303,0,0.000885,0,0
0:5:45.074,648.955,82.6268,0,0.000885,0,0
0:5:46.770,651.189,82.9095,0,0.000885,0,0
0:5:48.487,655.414,83.4472,0,0.000885,0,0
0:5:50.177,658.466,83.8402,0,0.000885,0,0
0:5:51.872,662.282,84.3229,0,0.000885,0,0
0:5:53.584,665.392,84.7228,0,0.000885,0,0
0:5:55.270,668.915,85.1709,0,0.000885,0,0
0:5:56.962,671.379,85.4812,0,0.000885,0,0
0:5:58.677,675.196,85.9707,0,0.000885,0,0
0:6:0.385,678.483,86.3844,0,0.000885,0,0
0:6:2.076,681.828,86.8119,0,0.000885,0,0
0:6:3.790,685.173,87.2394,0,0.000885,0,0
0:6:5.487,688.109,87.6117,0,0.000885,0,0
0:6:7.171,691.69,88.0667,0,0.000885,0,0
0:6:8.884,694.919,88.4804,0,0.000885,0,0
0:6:10.583,697.97,88.8665,0,0.000885,0,0
0:6:12.274,702.196,89.4043,0,0.000885,0,0
0:6:13.992,705.604,89.8387,0,0.000885,0,0
0:6:15.687,708.01,90.149,0,0.000885,0,0
0:6:17.382,712.058,90.6592,0,0.000885,0,0
0:6:19.096,714.816,91.0108,0,0.000885,0,0
0:6:20.792,718.397,91.4727,0,0.000885,0,0
0:6:22.488,721.568,91.8726,0,0.000885,0,0
0:6:24.195,725.149,92.3277,0,0.000885,0,0
0:6:25.877,728.908,92.8103,0,0.000885,0,0
0:6:27.593,731.781,93.1757,0,0.000885,0,0
0:6:29.297,735.362,93.6308,0,0.000885,0,0
0:6:30.984,738.827,94.0721,0,0.000885,0,0
0:6:32.677,742.288,94.5133,0,0.000885,0,0
0:6:34.384,745.753,94.9546,0,0.000885,0,0
0:6:36.090,748.689,95.3269,0,0.000885,0,0
0:6:37.791,751.62,95.6992,0,0.000885,0,0
0:6:39.497,755.437,96.1888,0,0.000885,0,0
0:6:41.187,758.902,96.6231,0,0.000885,0,0
0:6:42.888,761.66,96.9748,0,0.000885,0,0
0:6:44.582,764.538,97.3471,0,0.000885,0,0
0:6:46.285,768.764,97.8849,0,0.000885,0,0
0:6:47.994,772.167,98.3123,0,0.000885,0,0
0:6:49.688,774.867,98.6571,0,0.000885,0,0
0:6:51.390,778.977,99.1811,0,0.000885,0,0
0:6:53.091,781.557,99.512,0,0.000885,0,0
0:6:54.783,785.138,99.9671,0,0.000885,0,0
0:6:55.945,786.548,100.146,0,0.000885,0,0

File: DataFile2021-06-07_081649.csv
Test ID:,Date Tested:,Time:,Test Type:,Diameter Avg. (mm):,Cyl. Corr. Factor:,Height (mm):,Age (days):,Weight (kN):,Break Type:,Ramp Rate (MPa/s):,Load at Break (kN):,Stress at Break (MPa):
12,6/7/2021,08:16,Cylinder,100,1,200,0,3.6,3,0.25,503.4,64.09
Sample Time,Load (kN),Stress (MPa),Long. Strain,Trans. Strain,Chan1 Deflection (mm),Chan2 Deflection (mm)
0:0:18.876,8.3849,1.06869,0,0.000885,0,0
0:0:20.000,13.1979,1.68232,0,0.000885,0,0
0:0:21.098,12.0235,1.53064,0,0.000885,0,0
0:0:22.197,11.9079,1.51685,0,0.000885,0,0
0:0:23.295,13.2557,1.68922,0,0.000885,0,0
0:0:24.400,15.1907,1.93743,0,0.000885,0,0
0:0:25.512,18.1799,2.31664,0,0.000885,0,0
0:0:26.606,20.702,2.6338,0,0.000885,0,0
0:0:27.701,22.8149,2.90269,0,0.000885,0,0
0:0:28.795,24.3407,3.09575,0,0.000885,0,0
0:0:29.912,26.8628,3.4198,0,0.000885,0,0
0:0:31.015,29.3271,3.73696,0,0.000885,0,0
0:0:32.110,31.0263,3.9507,0,0.000885,0,0
0:0:33.204,33.2549,4.23338,0,0.000885,0,0
0:0:34.300,35.3055,4.49538,0,0.000885,0,0
0:0:35.414,38.0634,4.84701,0,0.000885,0,0
0:0:36.515,39.8828,5.07454,0,0.000885,0,0
0:0:37.610,41.6398,5.30207,0,0.000885,0,0
0:0:38.704,44.3399,5.64681,0,0.000885,0,0
0:0:39.807,46.3905,5.90881,0,0.000885,0,0
0:0:40.919,48.2677,6.14323,0,0.000885,0,0
0:0:42.014,50.6163,6.4466,0,0.000885,0,0
0:0:43.110,52.7248,6.71549,0,0.000885,0,0
0:0:44.205,54.6642,6.95681,0,0.000885,0,0
0:0:45.318,57.3598,7.30155,0,0.000885,0,0
0:0:46.417,59.2948,7.54976,0,0.000885,0,0
0:0:47.510,61.9949,7.8945,0,0.000885,0,0
0:0:48.607,63.8097,8.12202,0,0.000885,0,0
0:0:49.710,65.2198,8.30129,0,0.000885,0,0
0:0:50.821,67.7998,8.63224,0,0.000885,0,0
0:0:51.916,70.2641,8.94939,0,0.000885,0,0
0:0:53.009,71.8477,9.14934,0,0.000885,0,0
0:0:54.102,74.2497,9.45271,0,0.000885,0,0
0:0:55.214,76.4783,9.7354,0,0.000885,0,0
0:0:56.318,79.0004,10.0595,0,0.000885,0,0
0:0:57.414,80.9977,10.3146,0,0.000885,0,0
0:0:58.510,83.0483,10.5766,0,0.000885,0,0
0:0:59.615,85.6283,10.9006,0,0.000885,0,0
0:1:0.722,86.9805,11.073,0,0.000885,0,0
0:1:1.816,89.3247,11.3763,0,0.000885,0,0
0:1:2.909,91.7312,11.6797,0,0.000885,0,0
0:1:4.002,93.8397,11.9486,0,0.000885,0,0
0:1:5.116,96.304,12.2589,0,0.000885,0,0
0:1:6.219,98.239,12.5071,0,0.000885,0,0
0:1:7.316,100.645,12.8174,0,0.000885,0,0
0:1:8.410,102.523,13.0518,0,0.000885,0,0
0:1:9.506,104.573,13.3138,0,0.000885,0,0
0:1:10.617,106.686,13.5827,0,0.000885,0,0
0:1:11.715,109.208,13.9067,0,0.000885,0,0
0:1:12.811,111.028,14.1343,0,0.000885,0,0
0:1:13.907,113.256,14.4169,0,0.000885,0,0
0:1:15.012,115.836,14.7479,0,0.000885,0,0
0:1:16.120,117.593,14.9754,0,0.000885,0,0
0:1:17.211,118.883,15.134,0,0.000885,0,0
0:1:18.308,121.819,15.5132,0,0.000885,0,0
0:1:19.403,124.279,15.8235,0,0.000885,0,0
0:1:20.517,125.925,16.0303,0,0.000885,0,0
0:1:21.620,128.385,16.3475,0,0.000885,0,0
0:1:22.714,130.382,16.6026,0,0.000885,0,0
0:1:23.806,132.784,16.9059,0,0.000885,0,0
0:1:24.918,134.955,17.1817,0,0.000885,0,0
0:1:26.021,137.068,17.4506,0,0.000885,0,0
0:1:27.116,139.59,17.7747,0,0.000885,0,0
0:1:28.209,140.937,17.9471,0,0.000885,0,0
0:1:29.307,142.695,18.1677,0,0.000885,0,0
0:1:30.420,145.924,18.5814,0,0.000885,0,0
0:1:31.515,147.859,18.8227,0,0.000885,0,0
0:1:32.611,150.145,19.1192,0,0.000885,0,0
0:1:33.707,152.022,19.3536,0,0.000885,0,0
0:1:34.814,154.487,19.6707,0,0.000885,0,0
0:1:35.918,156.657,19.9465,0,0.000885,0,0
0:1:37.010,158.708,20.2085,0,0.000885,0,0
0:1:38.107,160.937,20.4912,0,0.000885,0,0
0:1:39.201,162.636,20.705,0,0.000885,0,0
0:1:40.316,165.158,21.029,0,0.000885,0,0
0:1:41.416,167.271,21.2979,0,0.000885,0,0
0:1:42.509,168.97,21.5116,0,0.000885,0,0
0:1:43.600,171.555,21.8426,0,0.000885,0,0
0:1:44.713,173.783,22.1253,0,0.000885,0,0
0:1:45.824,175.718,22.3735,0,0.000885,0,0
0:1:46.919,177.769,22.6355,0,0.000885,0,0
0:1:48.013,179.997,22.9182,0,0.000885,0,0
0:1:49.108,182.755,23.2698,0,0.000885,0,0
0:1:50.219,184.339,23.4698,0,0.000885,0,0
0:1:51.314,186.861,23.7938,0,0.000885,0,0
0:1:52.408,188.444,23.9938,0,0.000885,0,0
0:1:53.498,191.202,24.3454,0,0.000885,0,0
0:1:54.613,193.311,24.6143,0,0.000885,0,0
0:1:55.715,195.13,24.8418,0,0.000885,0,0
0:1:56.801,197.652,25.1659,0,0.000885,0,0
0:1:57.906,199.823,25.4417,0,0.000885,0,0
0:1:59.009,202.167,25.7381,0,0.000885,0,0
0:2:0.111,203.809,25.9519,0,0.000885,0,0
0:2:1.205,206.099,26.2414,0,0.000885,0,0
0:2:2.311,208.559,26.5517,0,0.000885,0,0
0:2:3.396,210.143,26.7586,0,0.000885,0,0
0:2:4.506,212.198,27.0206,0,0.000885,0,0
0:2:5.611,215.072,27.386,0,0.000885,0,0
0:2:6.709,216.713,27.5928,0,0.000885,0,0
0:2:7.803,218.884,27.8686,0,0.000885,0,0
0:2:8.889,221.348,28.1858,0,0.000885,0,0
0:2:9.992,223.634,28.4753,0,0.000885,0,0
0:2:11.109,225.627,28.7305,0,0.000885,0,0
0:2:12.205,227.389,28.9511,0,0.000885,0,0
0:2:13.311,229.969,29.282,0,0.000885,0,0
0:2:14.407,232.082,29.5509,0,0.000885,0,0
0:2:15.511,234.19,29.8198,0,0.000885,0,0
0:2:16.609,235.6,29.9991,0,0.000885,0,0
0:2:17.705,238.064,30.3094,0,0.000885,0,0
0:2:18.801,240.702,30.6472,0,0.000885,0,0
0:2:19.909,242.521,30.8816,0,0.000885,0,0
0:2:21.012,245.217,31.2195,0,0.000885,0,0
0:2:22.105,247.094,31.4608,0,0.000885,0,0
0:2:23.211,249.501,31.7641,0,0.000885,0,0
0:2:24.303,251.084,31.971,0,0.000885,0,0
0:2:25.408,253.606,32.2881,0,0.000885,0,0
0:2:26.506,256.129,32.6122,0,0.000885,0,0
0:2:27.613,258.179,32.8742,0,0.000885,0,0
0:2:28.711,259.878,33.0879,0,0.000885,0,0
0:2:29.816,262.401,33.412,0,0.000885,0,0
0:2:30.912,264.629,33.6947,0,0.000885,0,0
0:2:32.007,266.448,33.9222,0,0.000885,0,0
0:2:33.113,268.735,34.2187,0,0.000885,0,0
0:2:34.211,271.257,34.5358,0,0.000885,0,0
0:2:35.315,272.609,34.7082,0,0.000885,0,0
0:2:36.410,275.305,35.0529,0,0.000885,0,0
0:2:37.502,277.533,35.3356,0,0.000885,0,0
0:2:38.609,279.526,35.5907,0,0.000885,0,0
0:2:39.710,281.346,35.8252,0,0.000885,0,0
0:2:40.813,283.281,36.0665,0,0.000885,0,0
0:2:41.911,286.274,36.4526,0,0.000885,0,0
0:2:43.007,288.089,36.6801,0,0.000885,0,0
0:2:44.114,290.731,37.018,0,0.000885,0,0
0:2:45.218,292.315,37.2179,0,0.000885,0,0
0:2:46.310,294.601,37.5075,0,0.000885,0,0
0:2:47.415,296.945,37.8108,0,0.000885,0,0
0:2:48.510,299.294,38.1073,0,0.000885,0,0
0:2:49.613,301.051,38.328,0,0.000885,0,0
0:2:50.716,303.222,38.6106,0,0.000885,0,0
0:2:51.812,305.041,38.8382,0,0.000885,0,0
0:2:52.908,307.506,39.1553,0,0.000885,0,0
0:2:54.013,310.028,39.4725,0,0.000885,0,0
0:2:55.117,311.963,39.7207,0,0.000885,0,0
0:2:56.213,314.013,39.9827,0,0.000885,0,0
0:2:57.312,316.42,40.2861,0,0.000885,0,0
0:2:58.408,318.177,40.5136,0,0.000885,0,0
0:2:59.501,320.054,40.748,0,0.000885,0,0
0:3:0.608,322.928,41.1134,0,0.000885,0,0
0:3:1.717,325.45,41.4375,0,0.000885,0,0
0:3:2.813,327.153,41.6512,0,0.000885,0,0
0:3:3.898,329.204,41.9132,0,0.000885,0,0
0:3:5.004,331.61,42.2235,0,0.000885,0,0
0:3:6.104,333.781,42.4993,0,0.000885,0,0
0:3:7.210,335.48,42.713,0,0.000885,0,0
0:3:8.304,337.945,43.0302,0,0.000885,0,0
0:3:9.416,339.822,43.2646,0,0.000885,0,0
0:3:10.515,342.46,43.6024,0,0.000885,0,0
0:3:11.613,344.515,43.8644,0,0.000885,0,0
0:3:12.715,346.33,44.0989,0,0.000885,0,0
0:3:13.810,348.091,44.3195,0,0.000885,0,0
0:3:14.914,350.32,44.6022,0,0.000885,0,0
0:3:16.018,352.784,44.9193,0,0.000885,0,0
0:3:17.115,355.364,45.2434,0,0.000885,0,0
0:3:18.211,356.827,45.4296,0,0.000885,0,0
0:3:19.317,358.825,45.6847,0,0.000885,0,0
0:3:20.422,361.462,46.0225,0,0.000885,0,0
0:3:21.511,363.811,46.319,0,0.000885,0,0
0:3:22.616,365.92,46.5879,0,0.000885,0,0
0:3:23.699,368.033,46.8568,0,0.000885,0,0
0:3:24.804,370.083,47.1188,0,0.000885,0,0
0:3:25.910,372.725,47.4566,0,0.000885,0,0
0:3:27.016,374.54,47.691,0,0.000885,0,0
0:3:28.111,376.417,47.9255,0,0.000885,0,0
0:3:29.215,378.588,48.2012,0,0.000885,0,0
0:3:30.317,380.465,48.4426,0,0.000885,0,0
0:3:31.408,382.694,48.7252,0,0.000885,0,0
0:3:32.517,385.394,49.07,0,0.000885,0,0
0:3:33.614,386.977,49.2699,0,0.000885,0,0
0:3:34.721,389.322,49.5733,0,0.000885,0,0
0:3:35.820,391.377,49.8284,0,0.000885,0,0
0:3:36.915,393.605,50.118,0,0.000885,0,0
0:3:38.008,395.362,50.3386,0,0.000885,0,0
0:3:39.116,397.475,50.6075,0,0.000885,0,0
0:3:40.221,399.526,50.8695,0,0.000885,0,0
0:3:41.314,400.758,51.0281,0,0.000885,0,0
0:3:42.421,403.107,51.3246,0,0.000885,0,0
0:3:43.515,405.157,51.5866,0,0.000885,0,0
0:3:44.617,407.857,51.9313,0,0.000885,0,0
0:3:45.721,410.259,52.2347,0,0.000885,0,0
0:3:46.819,413.017,52.5863,0,0.000885,0,0
0:3:47.916,415.655,52.9242,0,0.000885,0,0
0:3:49.017,418.355,53.2689,0,0.000885,0,0
0:3:50.122,421.109,53.6205,0,0.000885,0,0
0:3:51.213,423.924,53.9791,0,0.000885,0,0
0:3:52.307,425.392,54.1652,0,0.000885,0,0
0:3:53.413,427.443,54.4272,0,0.000885,0,0
0:3:54.519,429.556,54.6961,0,0.000885,0,0
0:3:55.623,431.669,54.965,0,0.000885,0,0
0:3:56.719,432.781,55.1029,0,0.000885,0,0
0:3:57.816,435.187,55.4063,0,0.000885,0,0
0:3:58.900,437.007,55.6407,0,0.000885,0,0
0:4:0.022,439.702,55.9854,0,0.000885,0,0
0:4:1.117,441.931,56.2681,0,0.000885,0,0
0:4:2.223,443.808,56.5094,0,0.000885,0,0
0:4:3.308,445.569,56.7301,0,0.000885,0,0
0:4:4.416,447.678,56.999,0,0.000885,0,0
0:4:5.522,449.906,57.2816,0,0.000885,0,0
0:4:6.615,452.255,57.585,0,0.000885,0,0
0:4:7.708,454.306,57.847,0,0.000885,0,0
0:4:8.815,456.303,58.0952,0,0.000885,0,0
0:4:9.918,458.411,58.3641,0,0.000885,0,0
0:4:11.022,460.231,58.5985,0,0.000885,0,0
0:4:12.118,462.344,58.8674,0,0.000885,0,0
0:4:13.212,464.866,59.1915,0,0.000885,0,0
0:4:14.308,466.681,59.419,0,0.000885,0,0
0:4:15.413,469.323,59.7569,0,0.000885,0,0
0:4:16.522,471.961,60.0947,0,0.000885,0,0
0:4:17.621,474.305,60.3912,0,0.000885,0,0
0:4:18.718,475.773,60.5773,0,0.000885,0,0
0:4:19.825,477.824,60.8393,0,0.000885,0,0
0:4:20.923,479.234,61.0186,0,0.000885,0,0
0:4:22.020,482.107,61.384,0,0.000885,0,0
0:4:23.116,485.039,61.7563,0,0.000885,0,0
0:4:24.220,484.687,61.715,0,0.000885,0,0
0:4:25.324,482.988,61.4943,0,0.000885,0,0
0:4:26.425,488.09,62.1424,0,0.000885,0,0
0:4:27.512,492.899,62.7561,0,0.000885,0,0
0:4:28.608,495.243,63.0595,0,0.000885,0,0
0:4:29.718,498.352,63.4525,0,0.000885,0,0
0:4:30.817,503.396,64.0937,0,0.000885,0,0
0:4:31.919,501.813,63.8937,0,0.000885,0,0
0:4:33.023,494.598,62.9767,0,0.000885,0,0
0:4:34.107,498.703,63.4938,0,0.000885,0,0
0:4:35.208,480.23,61.1427,0,0.000885,0,0
0:4:36.310,473.309,60.2671,0,0.000885,0,0
0:4:37.414,455.129,57.9504,0,0.000885,0,0
0:4:38.518,364.336,46.3879,0,0.000885,0,0
0:4:39.614,365.51,46.5396,0,0.000885,0,0