Folder: Experiment-Files (part 6)

File: DataFile2021-06-06_061910.csv
Test ID:,Date Tested:,Time:,Test Type:,Diameter Avg. (mm):,Cyl. Corr. Factor:,Height (mm):,Age (days):,Weight (kN):,Break Type:,Ramp Rate (MPa/s):,Load at Break (kN):,Stress at Break (MPa):
12,6/6/2021,06:19,Cylinder,150,1,300,0,13.39,3,0.24,673.5,38.11
Sample Time,Load (kN),Stress (MPa),Long. Strain,Trans. Strain,Chan1 Deflection (mm),Chan2 Deflection (mm)
0:0:16.908,7.45077,0.42058,0,0.000885,0,0
0:0:17.604,10.0307,0.56537,0,0.000885,0,0
0:0:18.292,9.79498,0.551581,0,0.000885,0,0
0:0:18.990,13.7228,0.779108,0,0.000885,0,0
0:0:19.687,16.8899,0.958371,0,0.000885,0,0
0:0:20.378,19.7634,1.11695,0,0.000885,0,0
0:0:21.078,22.7571,1.28932,0,0.000885,0,0
0:0:21.773,25.6307,1.4479,0,0.000885,0,0
0:0:22.481,28.4464,1.60648,0,0.000885,0,0
0:0:23.188,31.9071,1.80643,0,0.000885,0,0
0:0:23.891,34.8963,1.9719,0,0.000885,0,0
0:0:24.589,37.5964,2.13048,0,0.000885,0,0
0:0:25.286,41.8756,2.3718,0,0.000885,0,0
0:0:25.982,46.0391,2.60622,0,0.000885,0,0
0:0:26.682,49.7934,2.81996,0,0.000885,0,0
0:0:27.382,53.0184,2.99922,0,0.000885,0,0
0:0:28.094,56.5992,3.20606,0,0.000885,0,0
0:0:28.799,59.1213,3.34396,0,0.000885,0,0
0:0:29.494,61.2876,3.46806,0,0.000885,0,0
0:0:30.190,64.0455,3.62664,0,0.000885,0,0
0:0:30.889,67.0391,3.79212,0,0.000885,0,0
0:0:31.585,69.3834,3.92312,0,0.000885,0,0
0:0:32.280,72.7284,4.11617,0,0.000885,0,0
0:0:32.989,75.8956,4.29543,0,0.000885,0,0
0:0:33.696,79.7077,4.50917,0,0.000885,0,0
0:0:34.395,83.4575,4.72291,0,0.000885,0,0
0:0:35.093,86.6869,4.90217,0,0.000885,0,0
0:0:35.788,90.0854,5.09523,0,0.000885,0,0
0:0:36.489,92.1405,5.21244,0,0.000885,0,0
0:0:37.188,94.7783,5.36412,0,0.000885,0,0
0:0:37.898,98.0655,5.55028,0,0.000885,0,0
0:0:38.606,101.464,5.74333,0,0.000885,0,0
0:0:39.300,105.045,5.94328,0,0.000885,0,0
0:0:39.997,107.683,6.09497,0,0.000885,0,0
0:0:40.697,110.908,6.27423,0,0.000885,0,0
0:0:41.390,113.839,6.4397,0,0.000885,0,0
0:0:42.088,116.423,6.59139,0,0.000885,0,0
0:0:42.798,119.822,6.77755,0,0.000885,0,0
0:0:43.504,123.167,6.9706,0,0.000885,0,0
0:0:44.206,126.334,7.14986,0,0.000885,0,0
0:0:44.900,128.798,7.28776,0,0.000885,0,0
0:0:45.597,132.081,7.47392,0,0.000885,0,0
0:0:46.296,135.364,7.66008,0,0.000885,0,0
0:0:46.991,138.18,7.81865,0,0.000885,0,0
0:0:47.698,141.818,8.0255,0,0.000885,0,0
0:0:48.407,144.634,8.18408,0,0.000885,0,0
0:0:49.106,147.975,8.37713,0,0.000885,0,0
0:0:49.806,151.084,8.5495,0,0.000885,0,0
0:0:50.504,154.193,8.72876,0,0.000885,0,0
0:0:51.196,156.595,8.85976,0,0.000885,0,0
0:0:51.897,159.94,9.05282,0,0.000885,0,0
0:0:52.597,162.814,9.2114,0,0.000885,0,0
0:0:53.307,165.923,9.39066,0,0.000885,0,0
0:0:54.015,169.499,9.59061,0,0.000885,0,0
0:0:54.710,172.551,9.76298,0,0.000885,0,0
0:0:55.405,176.07,9.96292,0,0.000885,0,0
0:0:56.106,179.059,10.1353,0,0.000885,0,0
0:0:56.797,181.701,10.2801,0,0.000885,0,0
0:0:57.507,184.984,10.4662,0,0.000885,0,0
0:0:58.213,187.622,10.6179,0,0.000885,0,0
0:0:58.913,191.202,10.8179,0,0.000885,0,0
0:0:59.611,193.782,10.9627,0,0.000885,0,0
0:1:0.304,196.772,11.135,0,0.000885,0,0
0:1:0.990,200.232,11.3281,0,0.000885,0,0
0:1:1.685,203.284,11.5005,0,0.000885,0,0
0:1:2.379,206.037,11.659,0,0.000885,0,0
0:1:3.083,209.324,11.8452,0,0.000885,0,0
0:1:3.787,213.252,12.0658,0,0.000885,0,0
0:1:4.476,216.126,12.2313,0,0.000885,0,0
0:1:5.167,218.941,12.3899,0,0.000885,0,0
0:1:5.863,221.642,12.5416,0,0.000885,0,0
0:1:6.560,224.866,12.7277,0,0.000885,0,0
0:1:7.260,227.624,12.8794,0,0.000885,0,0
0:1:7.967,231.201,13.0862,0,0.000885,0,0
0:1:8.669,235.013,13.3,0,0.000885,0,0
0:1:9.364,237.829,13.4586,0,0.000885,0,0
0:1:10.056,241.054,13.6378,0,0.000885,0,0
0:1:10.766,244.105,13.8102,0,0.000885,0,0
0:1:11.459,246.979,13.9757,0,0.000885,0,0
0:1:12.153,250.146,14.1549,0,0.000885,0,0
0:1:12.857,253.077,14.3204,0,0.000885,0,0
0:1:13.557,255.951,14.4859,0,0.000885,0,0
0:1:14.258,259.176,14.6651,0,0.000885,0,0
0:1:14.957,262.049,14.8306,0,0.000885,0,0
0:1:15.652,265.216,15.0099,0,0.000885,0,0
0:1:16.343,268.21,15.1754,0,0.000885,0,0
0:1:17.035,270.67,15.3202,0,0.000885,0,0
0:1:17.739,274.544,15.5339,0,0.000885,0,0
0:1:18.439,277.24,15.6856,0,0.000885,0,0
0:1:19.134,280.407,15.8648,0,0.000885,0,0
0:1:19.828,283.165,16.0234,0,0.000885,0,0
0:1:20.517,286.977,16.2372,0,0.000885,0,0
0:1:21.212,289.557,16.3888,0,0.000885,0,0
0:1:21.903,292.724,16.5681,0,0.000885,0,0
0:1:22.613,296.069,16.7543,0,0.000885,0,0
0:1:23.317,299.174,16.9266,0,0.000885,0,0
0:1:24.014,302.168,17.099,0,0.000885,0,0
0:1:24.710,305.041,17.2645,0,0.000885,0,0
0:1:25.400,307.857,17.4231,0,0.000885,0,0
0:1:26.090,311.26,17.6161,0,0.000885,0,0
0:1:26.784,314.485,17.7954,0,0.000885,0,0
0:1:27.479,317.358,17.9608,0,0.000885,0,0
0:1:28.185,320.699,18.147,0,0.000885,0,0
0:1:28.887,323.515,18.3056,0,0.000885,0,0
0:1:29.576,326.74,18.4917,0,0.000885,0,0
0:1:30.270,329.088,18.6227,0,0.000885,0,0
0:1:30.960,332.429,18.8089,0,0.000885,0,0
0:1:31.649,335.658,18.9951,0,0.000885,0,0
0:1:32.352,338.941,19.1812,0,0.000885,0,0
0:1:33.056,341.757,19.3398,0,0.000885,0,0
0:1:33.771,345.275,19.5397,0,0.000885,0,0
0:1:34.467,347.798,19.6845,0,0.000885,0,0
0:1:35.166,351.08,19.8638,0,0.000885,0,0
0:1:35.856,354.955,20.0844,0,0.000885,0,0
0:1:36.552,357.708,20.243,0,0.000885,0,0
0:1:37.249,360.288,20.3878,0,0.000885,0,0
0:1:37.953,363.282,20.5602,0,0.000885,0,0
0:1:38.653,366.858,20.7601,0,0.000885,0,0
0:1:39.361,369.91,20.9325,0,0.000885,0,0
0:1:40.068,372.783,21.098,0,0.000885,0,0
0:1:40.767,376.48,21.3048,0,0.000885,0,0
0:1:41.457,378.997,21.4496,0,0.000885,0,0
0:1:42.152,381.813,21.6082,0,0.000885,0,0
0:1:42.858,384.922,21.7805,0,0.000885,0,0
0:1:43.560,388.561,21.9874,0,0.000885,0,0
0:1:44.260,391.786,22.1735,0,0.000885,0,0
0:1:44.962,394.188,22.3045,0,0.000885,0,0
0:1:45.657,397.533,22.4976,0,0.000885,0,0
0:1:46.364,400.291,22.6493,0,0.000885,0,0
0:1:47.070,403.689,22.8423,0,0.000885,0,0
0:1:47.774,407.035,23.0354,0,0.000885,0,0
0:1:48.476,410.024,23.2009,0,0.000885,0,0
0:1:49.172,413.369,23.3939,0,0.000885,0,0
0:1:49.870,416.127,23.5456,0,0.000885,0,0
0:1:50.561,418.707,23.6973,0,0.000885,0,0
0:1:51.264,422.341,23.8972,0,0.000885,0,0
0:1:51.973,425.686,24.0903,0,0.000885,0,0
0:1:52.677,428.444,24.242,0,0.000885,0,0
0:1:53.380,431.962,24.4419,0,0.000885,0,0
0:1:54.074,434.778,24.6005,0,0.000885,0,0
0:1:54.769,437.416,24.7522,0,0.000885,0,0
0:1:55.469,440.699,24.9383,0,0.000885,0,0
0:1:56.155,443.572,25.1038,0,0.000885,0,0
0:1:56.851,447.447,25.3175,0,0.000885,0,0
0:1:57.558,450.084,25.4692,0,0.000885,0,0
0:1:58.258,453.545,25.6623,0,0.000885,0,0
0:1:58.964,456.419,25.8278,0,0.000885,0,0
0:1:59.662,459.822,26.0208,0,0.000885,0,0
0:2:0.354,462.459,26.1725,0,0.000885,0,0
0:2:1.048,465.333,26.3311,0,0.000885,0,0
0:2:1.776,468.909,26.5379,0,0.000885,0,0
0:2:2.481,471.609,26.6896,0,0.000885,0,0
0:2:3.184,475.244,26.8964,0,0.000885,0,0
0:2:3.879,478.117,27.055,0,0.000885,0,0
0:2:4.573,481.347,27.2412,0,0.000885,0,0
0:2:5.262,483.926,27.386,0,0.000885,0,0
0:2:5.952,487.036,27.5583,0,0.000885,0,0
0:2:6.646,490.203,27.7376,0,0.000885,0,0
0:2:7.341,492.721,27.8824,0,0.000885,0,0
0:2:8.047,496.889,28.1168,0,0.000885,0,0
0:2:8.749,499.762,28.2823,0,0.000885,0,0
0:2:9.437,502.871,28.4547,0,0.000885,0,0
0:2:10.128,505.918,28.627,0,0.000885,0,0
0:2:10.823,508.85,28.7925,0,0.000885,0,0
0:2:11.513,511.141,28.9235,0,0.000885,0,0
0:2:12.204,514.833,29.1303,0,0.000885,0,0
0:2:12.912,518.178,29.3234,0,0.000885,0,0
0:2:13.612,521.051,29.4889,0,0.000885,0,0
0:2:14.308,524.041,29.6544,0,0.000885,0,0
0:2:15.001,527.621,29.8543,0,0.000885,0,0
0:2:15.689,530.201,30.006,0,0.000885,0,0
0:2:16.383,533.426,30.1852,0,0.000885,0,0
0:2:17.078,536.064,30.3369,0,0.000885,0,0
0:2:17.782,539.525,30.53,0,0.000885,0,0
0:2:18.485,542.634,30.7092,0,0.000885,0,0
0:2:19.176,545.628,30.8747,0,0.000885,0,0
0:2:19.865,548.559,31.0402,0,0.000885,0,0
0:2:20.570,551.548,31.2126,0,0.000885,0,0
0:2:21.259,553.897,31.3436,0,0.000885,0,0
0:2:21.951,557.589,31.5504,0,0.000885,0,0
0:2:22.656,561.285,31.7641,0,0.000885,0,0
0:2:23.357,564.337,31.9365,0,0.000885,0,0
0:2:24.060,567.326,32.102,0,0.000885,0,0
0:2:24.774,570.493,32.2813,0,0.000885,0,0
0:2:25.462,572.664,32.4054,0,0.000885,0,0
0:2:26.166,576.77,32.6398,0,0.000885,0,0
0:2:26.867,579.879,32.8121,0,0.000885,0,0
0:2:27.578,581.93,32.9294,0,0.000885,0,0
0:2:28.280,585.626,33.1362,0,0.000885,0,0
0:2:28.977,589.203,33.343,0,0.000885,0,0
0:2:29.675,592.374,33.5223,0,0.000885,0,0
0:2:30.378,594.954,33.6671,0,0.000885,0,0
0:2:31.072,597.774,33.8257,0,0.000885,0,0
0:2:31.768,601.235,34.0256,0,0.000885,0,0
0:2:32.478,604.171,34.1911,0,0.000885,0,0
0:2:33.181,607.049,34.3497,0,0.000885,0,0
0:2:33.881,611.155,34.5841,0,0.000885,0,0
0:2:34.572,613.739,34.7289,0,0.000885,0,0
0:2:35.268,616.617,34.8944,0,0.000885,0,0
0:2:35.966,619.668,35.0667,0,0.000885,0,0
0:2:36.658,622.484,35.2253,0,0.000885,0,0
0:2:37.366,625.771,35.4115,0,0.000885,0,0
0:2:38.072,629.41,35.6183,0,0.000885,0,0
0:2:38.772,632.288,35.7769,0,0.000885,0,0
0:2:39.468,635.282,35.9493,0,0.000885,0,0
0:2:40.168,637.924,36.1009,0,0.000885,0,0
0:2:40.866,641.505,36.3009,0,0.000885,0,0
0:2:41.562,643.56,36.4181,0,0.000885,0,0
0:2:42.263,648.079,36.6732,0,0.000885,0,0
0:2:42.969,650.366,36.8042,0,0.000885,0,0
0:2:43.670,653.359,36.9697,0,0.000885,0,0
0:2:44.367,656.237,37.1352,0,0.000885,0,0
0:2:45.063,659.173,37.3006,0,0.000885,0,0
0:2:45.776,663.105,37.5213,0,0.000885,0,0
0:2:46.474,665.16,37.6385,0,0.000885,0,0
0:2:47.173,667.331,37.7626,0,0.000885,0,0
0:2:47.881,670.147,37.9212,0,0.000885,0,0
0:2:48.585,671.793,38.0177,0,0.000885,0,0
0:2:49.276,672.616,38.0591,0,0.000885,0,0
0:2:49.975,673.496,38.1142,0,0.000885,0,0
0:2:50.667,669.973,37.9143,0,0.000885,0,0
0:2:51.356,643.618,36.4181,0,0.000885,0,0
0:2:52.053,571.725,32.3502,0,0.000885,0,0
0:2:52.756,477.534,27.0206,0,0.000885,0,0
0:2:52.798,477.534,27.0206,0,0.000885,0,0

File: DataFile2021-06-06_063305.csv
Test ID:,Date Tested:,Time:,Test Type:,Diameter Avg. (mm):,Cyl. Corr. Factor:,Height (mm):,Age (days):,Weight (kN):,Break Type:,Ramp Rate (MPa/s):,Load at Break (kN):,Stress at Break (MPa):
12,6/6/2021,06:33,Cylinder,150,1,300,0,13.39,1,0.25,1929.6,109.19
Sample Time,Load (kN),Stress (MPa),Long. Strain,Trans. Strain,Chan1 Deflection (mm),Chan2 Deflection (mm)
0:0:18.654,5.7471,0.324054,0,0.000885,0,0
0:0:20.574,12.1392,0.689476,0,0.000885,0,0
0:0:22.473,20.5864,1.16521,0,0.000885,0,0
0:0:24.380,29.5584,1.67543,0,0.000885,0,0
0:0:26.287,40.3498,2.28216,0,0.000885,0,0
0:0:28.182,48.4456,2.74411,0,0.000885,0,0
0:0:30.088,55.5405,3.14401,0,0.000885,0,0
0:0:31.987,64.3969,3.64733,0,0.000885,0,0
0:0:33.882,72.3726,4.09549,0,0.000885,0,0
0:0:35.793,80.4105,4.55054,0,0.000885,0,0
0:0:37.681,89.3247,5.05386,0,0.000885,0,0
0:0:39.588,98.4169,5.57096,0,0.000885,0,0
0:0:41.494,106.041,5.99844,0,0.000885,0,0
0:0:43.382,114.31,6.46728,0,0.000885,0,0
0:0:45.293,123.34,6.97749,0,0.000885,0,0
0:0:47.192,131.787,7.46013,0,0.000885,0,0
0:0:49.079,139.527,7.8945,0,0.000885,0,0
0:0:50.996,147.917,8.37024,0,0.000885,0,0
0:0:52.890,156.537,8.85976,0,0.000885,0,0
0:0:54.796,165.158,9.34929,0,0.000885,0,0
0:0:56.693,173.369,9.81124,0,0.000885,0,0
0:0:58.587,181.817,10.287,0,0.000885,0,0
0:1:0.501,190.557,10.7834,0,0.000885,0,0
0:1:2.382,198.591,11.2385,0,0.000885,0,0
0:1:4.275,206.099,11.6659,0,0.000885,0,0
0:1:6.177,214.836,12.1555,0,0.000885,0,0
0:1:8.071,223.399,12.645,0,0.000885,0,0
0:1:9.962,232.082,13.1345,0,0.000885,0,0
0:1:11.872,240.351,13.6034,0,0.000885,0,0
0:1:13.769,249.029,14.0929,0,0.000885,0,0
0:1:15.678,257.241,14.5548,0,0.000885,0,0
0:1:17.575,265.51,15.0237,0,0.000885,0,0
0:1:19.477,274.131,15.5132,0,0.000885,0,0
0:1:21.375,282.111,15.9614,0,0.000885,0,0
0:1:23.259,290.731,16.4509,0,0.000885,0,0
0:1:25.160,299.294,16.9335,0,0.000885,0,0
0:1:27.072,308.093,17.4368,0,0.000885,0,0
0:1:28.964,315.948,17.8781,0,0.000885,0,0
0:1:30.865,323.808,18.3263,0,0.000885,0,0
0:1:32.764,333.194,18.8572,0,0.000885,0,0
0:1:34.674,340.992,19.2984,0,0.000885,0,0
0:1:36.563,349.497,19.7742,0,0.000885,0,0
0:1:38.472,358.122,20.2637,0,0.000885,0,0
0:1:40.377,366.213,20.7256,0,0.000885,0,0
0:1:42.259,374.309,21.1807,0,0.000885,0,0
0:1:44.172,383.517,21.7047,0,0.000885,0,0
0:1:46.072,391.021,22.1253,0,0.000885,0,0
0:1:47.974,399.526,22.6079,0,0.000885,0,0
0:1:49.879,407.502,23.063,0,0.000885,0,0
0:1:51.777,416.242,23.5525,0,0.000885,0,0
0:1:53.683,425.686,24.0903,0,0.000885,0,0
0:1:55.581,433.662,24.5384,0,0.000885,0,0
0:1:57.468,442.402,25.0349,0,0.000885,0,0
0:1:59.380,450.378,25.483,0,0.000885,0,0
0:2:1.269,458.411,25.9381,0,0.000885,0,0
0:2:3.166,467.388,26.4483,0,0.000885,0,0
0:2:5.084,475.595,26.9102,0,0.000885,0,0
0:2:6.975,483.575,27.3653,0,0.000885,0,0
0:2:8.870,491.96,27.841,0,0.000885,0,0
0:2:10.778,501.052,28.3512,0,0.000885,0,0
0:2:12.683,508.619,28.7787,0,0.000885,0,0
0:2:14.577,517.355,29.2751,0,0.000885,0,0
0:2:16.469,525.393,29.7302,0,0.000885,0,0
0:2:18.365,534.129,30.2266,0,0.000885,0,0
0:2:20.285,542.341,30.6886,0,0.000885,0,0
0:2:22.176,550.552,31.1574,0,0.000885,0,0
0:2:24.070,559.408,31.6538,0,0.000885,0,0
0:2:25.969,567.793,32.1296,0,0.000885,0,0
0:2:27.867,575.595,32.5708,0,0.000885,0,0
0:2:29.778,584.394,33.0673,0,0.000885,0,0
0:2:31.668,592.374,33.5223,0,0.000885,0,0
0:2:33.563,600.884,34.0049,0,0.000885,0,0
0:2:35.479,608.984,34.46,0,0.000885,0,0
0:2:37.374,618.316,34.9909,0,0.000885,0,0
0:2:39.274,626.83,35.4735,0,0.000885,0,0
0:2:41.180,635.397,35.9562,0,0.000885,0,0
0:2:43.067,643.266,36.4043,0,0.000885,0,0
0:2:44.973,651.66,36.8732,0,0.000885,0,0
0:2:46.875,660.112,37.3558,0,0.000885,0,0
0:2:48.771,669.035,37.8591,0,0.000885,0,0
0:2:50.685,676.606,38.2866,0,0.000885,0,0
0:2:52.573,685.293,38.783,0,0.000885,0,0
0:2:54.474,693.278,39.2312,0,0.000885,0,0
0:2:56.387,702.201,39.7345,0,0.000885,0,0
0:2:58.275,710.359,40.1964,0,0.000885,0,0
0:3:0.181,718.868,40.6791,0,0.000885,0,0
0:3:2.072,726.733,41.1272,0,0.000885,0,0
0:3:3.975,735.776,41.6374,0,0.000885,0,0
0:3:5.886,743.756,42.0856,0,0.000885,0,0
0:3:7.775,752.328,42.5751,0,0.000885,0,0
0:3:9.687,760.779,43.0509,0,0.000885,0,0
0:3:11.587,769,43.5197,0,0.000885,0,0
0:3:13.478,777.625,44.0023,0,0.000885,0,0
0:3:15.388,785.374,44.4436,0,0.000885,0,0
0:3:17.287,794.181,44.94,0,0.000885,0,0
0:3:19.171,802.868,45.4365,0,0.000885,0,0
0:3:21.079,811.204,45.9053,0,0.000885,0,0
0:3:22.977,820.123,46.4086,0,0.000885,0,0
0:3:24.893,828.286,46.8706,0,0.000885,0,0
0:3:26.783,836.15,47.3187,0,0.000885,0,0
0:3:28.669,844.837,47.8082,0,0.000885,0,0
0:3:30.583,853.409,48.2909,0,0.000885,0,0
0:3:32.464,861.745,48.7666,0,0.000885,0,0
0:3:34.355,869.667,49.2148,0,0.000885,0,0
0:3:36.263,878.239,49.6974,0,0.000885,0,0
0:3:38.146,886.984,50.1938,0,0.000885,0,0
0:3:40.058,895.142,50.6558,0,0.000885,0,0
0:3:41.948,903.656,51.1384,0,0.000885,0,0
0:3:43.836,911.636,51.5866,0,0.000885,0,0
0:3:45.747,920.266,52.0761,0,0.000885,0,0
0:3:47.633,928.66,52.5518,0,0.000885,0,0
0:3:49.535,936.88,53.0138,0,0.000885,0,0
0:3:51.436,945.332,53.4964,0,0.000885,0,0
0:3:53.321,953.783,53.9722,0,0.000885,0,0
0:3:55.233,961.706,54.4203,0,0.000885,0,0
0:3:57.126,970.455,54.9167,0,0.000885,0,0
0:3:59.012,978.377,55.3649,0,0.000885,0,0
0:4:0.923,987.83,55.9027,0,0.000885,0,0
0:4:2.811,995.694,56.344,0,0.000885,0,0
0:4:4.712,1004.03,56.8197,0,0.000885,0,0
0:4:6.612,1012.6,57.3023,0,0.000885,0,0
0:4:8.498,1020.35,57.7367,0,0.000885,0,0
0:4:10.411,1028.62,58.2055,0,0.000885,0,0
0:4:12.299,1037.61,58.7158,0,0.000885,0,0
0:4:14.190,1045.59,59.1708,0,0.000885,0,0
0:4:16.096,1054.16,59.6534,0,0.000885,0,0
0:4:17.981,1062.79,60.143,0,0.000885,0,0
0:4:19.903,1070.42,60.5704,0,0.000885,0,0
0:4:21.800,1079.75,61.1013,0,0.000885,0,0
0:4:23.685,1087.21,61.5219,0,0.000885,0,0
0:4:25.597,1095.84,62.0114,0,0.000885,0,0
0:4:27.480,1104.52,62.501,0,0.000885,0,0
0:4:29.403,1112.62,62.9629,0,0.000885,0,0
0:4:31.301,1121.78,63.48,0,0.000885,0,0
0:4:33.185,1128.88,63.8799,0,0.000885,0,0
0:4:35.094,1138.8,64.4453,0,0.000885,0,0
0:4:36.983,1146.61,64.8866,0,0.000885,0,0
0:4:38.890,1155.12,65.3692,0,0.000885,0,0
0:4:40.804,1163.22,65.8242,0,0.000885,0,0
0:4:42.691,1171.79,66.3069,0,0.000885,0,0
0:4:44.594,1180.18,66.7826,0,0.000885,0,0
0:4:46.486,1188.7,67.2653,0,0.000885,0,0
0:4:48.382,1196.74,67.7203,0,0.000885,0,0
0:4:50.301,1205.37,68.2098,0,0.000885,0,0
0:4:52.188,1214.35,68.72,0,0.000885,0,0
0:4:54.085,1222.27,69.1682,0,0.000885,0,0
0:4:55.994,1230.73,69.6439,0,0.000885,0,0
0:4:57.880,1238.71,70.099,0,0.000885,0,0
0:4:59.786,1247.16,70.5747,0,0.000885,0,0
0:5:1.687,1255.61,71.0505,0,0.000885,0,0
0:5:3.594,1263.83,71.5193,0,0.000885,0,0
0:5:5.505,1272.17,71.9882,0,0.000885,0,0
0:5:7.389,1280.74,72.4777,0,0.000885,0,0
0:5:9.281,1289.25,72.9534,0,0.000885,0,0
0:5:11.188,1297.23,73.4085,0,0.000885,0,0
0:5:13.085,1306.27,73.9187,0,0.000885,0,0
0:5:15.001,1314.96,74.4082,0,0.000885,0,0
0:5:16.894,1323.18,74.8771,0,0.000885,0,0
0:5:18.782,1331.63,75.3528,0,0.000885,0,0
0:5:20.706,1339.67,75.8079,0,0.000885,0,0
0:5:22.592,1348.24,76.2974,0,0.000885,0,0
0:5:24.487,1355.7,76.718,0,0.000885,0,0
0:5:26.391,1364.79,77.2282,0,0.000885,0,0
0:5:28.289,1373.19,77.7039,0,0.000885,0,0
0:5:30.200,1381.23,78.159,0,0.000885,0,0
0:5:32.084,1389.98,78.6554,0,0.000885,0,0
0:5:33.977,1398.37,79.1311,0,0.000885,0,0
0:5:35.888,1406.71,79.6,0,0.000885,0,0
0:5:37.781,1415.16,80.0826,0,0.000885,0,0
0:5:39.683,1423.38,80.5446,0,0.000885,0,0
0:5:41.578,1431.94,81.0341,0,0.000885,0,0
0:5:43.474,1439.75,81.4753,0,0.000885,0,0
0:5:45.382,1448.38,81.9649,0,0.000885,0,0
0:5:47.272,1457.01,82.4475,0,0.000885,0,0
0:5:49.171,1465.52,82.9301,0,0.000885,0,0
0:5:51.079,1473.56,83.3852,0,0.000885,0,0
0:5:52.985,1482.38,83.8885,0,0.000885,0,0
0:5:54.888,1490.33,84.3367,0,0.000885,0,0
0:5:56.789,1498.98,84.8262,0,0.000885,0,0
0:5:58.694,1507.82,85.3226,0,0.000885,0,0
0:6:0.609,1516.59,85.819,0,0.000885,0,0
0:6:2.506,1524.66,86.281,0,0.000885,0,0
0:6:4.394,1532.55,86.7223,0,0.000885,0,0
0:6:6.300,1541.38,87.2256,0,0.000885,0,0
0:6:8.193,1549.74,87.6944,0,0.000885,0,0
0:6:10.104,1557.99,88.1633,0,0.000885,0,0
0:6:11.989,1566.58,88.6528,0,0.000885,0,0
0:6:13.895,1574.83,89.1147,0,0.000885,0,0
0:6:15.803,1582.78,89.5698,0,0.000885,0,0
0:6:17.694,1591.78,90.08,0,0.000885,0,0
0:6:19.595,1599.32,90.5006,0,0.000885,0,0
0:6:21.491,1608.27,91.0108,0,0.000885,0,0
0:6:23.385,1616.34,91.4659,0,0.000885,0,0
0:6:25.302,1624.88,91.9485,0,0.000885,0,0
0:6:27.189,1633.24,92.4242,0,0.000885,0,0
0:6:29.087,1641.42,92.8862,0,0.000885,0,0
0:6:30.997,1649.73,93.355,0,0.000885,0,0
0:6:32.882,1658.44,93.8514,0,0.000885,0,0
0:6:34.793,1666.8,94.3203,0,0.000885,0,0
0:6:36.694,1675.28,94.8029,0,0.000885,0,0
0:6:38.577,1683.47,95.2649,0,0.000885,0,0
0:6:40.487,1692.65,95.782,0,0.000885,0,0
0:6:42.394,1700.78,96.2439,0,0.000885,0,0
0:6:44.288,1709.31,96.7265,0,0.000885,0,0
0:6:46.197,1717.26,97.1747,0,0.000885,0,0
0:6:48.096,1725.8,97.6573,0,0.000885,0,0
0:6:49.996,1733.99,98.1262,0,0.000885,0,0
0:6:51.895,1742.7,98.6157,0,0.000885,0,0
0:6:53.794,1751.24,99.0983,0,0.000885,0,0
0:6:55.708,1758.72,99.5258,0,0.000885,0,0
0:6:57.600,1767.49,100.022,0,0.000885,0,0
0:6:59.505,1776.21,100.512,0,0.000885,0,0
0:7:1.401,1784.51,100.981,0,0.000885,0,0
0:7:3.294,1792.52,101.436,0,0.000885,0,0
0:7:5.223,1800.88,101.911,0,0.000885,0,0
0:7:7.116,1809.83,102.415,0,0.000885,0,0
0:7:9.000,1818.07,102.884,0,0.000885,0,0
0:7:10.909,1826.2,103.339,0,0.000885,0,0
0:7:12.798,1835.03,103.842,0,0.000885,0,0
0:7:14.722,1843.63,104.325,0,0.000885,0,0
0:7:16.613,1851.87,104.793,0,0.000885,0,0
0:7:18.501,1860.18,105.262,0,0.000885,0,0
0:7:20.425,1869,105.766,0,0.000885,0,0
0:7:22.309,1877.13,106.221,0,0.000885,0,0
0:7:24.195,1885.67,106.71,0,0.000885,0,0
0:7:26.104,1893.68,107.158,0,0.000885,0,0
0:7:27.997,1902.22,107.641,0,0.000885,0,0
0:7:29.899,1910.81,108.13,0,0.000885,0,0
0:7:31.800,1918.88,108.586,0,0.000885,0,0
0:7:33.704,1926.77,109.034,0,0.000885,0,0
0:7:35.612,1772.38,100.298,0,0.000885,0,0
0:7:35.944,1626.7,92.0519,0,0.000885,0,0