Folder: Experiment-Files (part 32)

File: DataFile2021-06-08_072016.csv
Test ID:,Date Tested:,Time:,Test Type:,Diameter Avg. (mm):,Cyl. Corr. Factor:,Height (mm):,Age (days):,Weight (kN):,Break Type:,Ramp Rate (MPa/s):,Load at Break (kN):,Stress at Break (MPa):
12,6/8/2021,07:20,Cylinder,100,1,200,0,3.6,3,0.23,273.55,34.83
Sample Time,Load (kN),Stress (MPa),Long. Strain,Trans. Strain,Chan1 Deflection (mm),Chan2 Deflection (mm)
0:0:20.641,5.10211,0.648107,0,0.000885,0,0
0:0:21.339,12.0235,1.53064,0,0.000885,0,0
0:0:22.032,11.1428,1.42032,0,0.000885,0,0
0:0:22.724,10.907,1.38585,0,0.000885,0,0
0:0:23.421,11.3786,1.4479,0,0.000885,0,0
0:0:24.114,10.7336,1.36516,0,0.000885,0,0
0:0:24.806,11.9079,1.51685,0,0.000885,0,0
0:0:25.506,13.785,1.75816,0,0.000885,0,0
0:0:26.205,15.8357,2.01327,0,0.000885,0,0
0:0:26.913,17.0678,2.17185,0,0.000885,0,0
0:0:27.618,18.945,2.41317,0,0.000885,0,0
0:0:28.312,20.9956,2.67517,0,0.000885,0,0
0:0:29.011,22.2278,2.82685,0,0.000885,0,0
0:0:29.708,22.8149,2.90269,0,0.000885,0,0
0:0:30.402,24.5764,3.13022,0,0.000885,0,0
0:0:31.100,25.9821,3.30948,0,0.000885,0,0
0:0:31.808,27.2142,3.46806,0,0.000885,0,0
0:0:32.514,28.6821,3.65422,0,0.000885,0,0
0:0:33.214,29.852,3.79901,0,0.000885,0,0
0:0:33.907,31.0263,3.9507,0,0.000885,0,0
0:0:34.605,32.6099,4.15064,0,0.000885,0,0
0:0:35.303,33.722,4.29543,0,0.000885,0,0
0:0:36.005,35.3055,4.49538,0,0.000885,0,0
0:0:36.713,36.8891,4.69533,0,0.000885,0,0
0:0:37.418,38.0634,4.84701,0,0.000885,0,0
0:0:38.112,39.7048,5.05386,0,0.000885,0,0
0:0:38.813,41.1149,5.23312,0,0.000885,0,0
0:0:39.508,42.1113,5.36412,0,0.000885,0,0
0:0:40.203,43.9306,5.59165,0,0.000885,0,0
0:0:40.901,45.0427,5.73644,0,0.000885,0,0
0:0:41.611,46.217,5.88123,0,0.000885,0,0
0:0:42.315,47.9162,6.10186,0,0.000885,0,0
0:0:43.013,48.5612,6.1846,0,0.000885,0,0
0:0:43.708,49.9713,6.36386,0,0.000885,0,0
0:0:44.406,52.0798,6.63276,0,0.000885,0,0
0:0:45.105,53.3698,6.79823,0,0.000885,0,0
0:0:45.798,54.722,6.9706,0,0.000885,0,0
0:0:46.506,55.9542,7.12228,0,0.000885,0,0
0:0:47.211,56.657,7.21192,0,0.000885,0,0
0:0:47.911,59.0012,7.51529,0,0.000885,0,0
0:0:48.611,60.2334,7.66697,0,0.000885,0,0
0:0:49.307,61.7013,7.85313,0,0.000885,0,0
0:0:49.999,62.9334,8.01171,0,0.000885,0,0
0:0:50.701,63.9298,8.14271,0,0.000885,0,0
0:0:51.397,65.3933,8.32887,0,0.000885,0,0
0:0:52.108,67.3906,8.57708,0,0.000885,0,0
0:0:52.813,68.387,8.70808,0,0.000885,0,0
0:0:53.507,69.3834,8.83218,0,0.000885,0,0
0:0:54.204,71.0248,9.04592,0,0.000885,0,0
0:0:54.903,72.4927,9.23208,0,0.000885,0,0
0:0:55.597,73.667,9.37687,0,0.000885,0,0
0:0:56.307,75.2506,9.58371,0,0.000885,0,0
0:0:57.013,76.4204,9.7285,0,0.000885,0,0
0:0:57.712,77.7104,9.89398,0,0.000885,0,0
0:0:58.411,79.1783,10.0801,0,0.000885,0,0
0:0:59.108,80.9977,10.3146,0,0.000885,0,0
0:0:59.802,82.0519,10.4456,0,0.000885,0,0
0:1:0.501,83.1061,10.5835,0,0.000885,0,0
0:1:1.201,84.8676,10.8041,0,0.000885,0,0
0:1:1.910,86.042,10.9558,0,0.000885,0,0
0:1:2.615,87.3898,11.1281,0,0.000885,0,0
0:1:3.309,89.2091,11.3557,0,0.000885,0,0
0:1:4.009,90.379,11.5073,0,0.000885,0,0
0:1:4.704,91.6111,11.6659,0,0.000885,0,0
0:1:5.399,92.8433,11.8245,0,0.000885,0,0
0:1:6.098,94.7783,12.0658,0,0.000885,0,0
0:1:6.807,95.9526,12.2175,0,0.000885,0,0
0:1:7.513,97.3582,12.3968,0,0.000885,0,0
0:1:8.212,98.3591,12.5209,0,0.000885,0,0
0:1:8.907,100.058,12.7415,0,0.000885,0,0
0:1:9.604,101.348,12.907,0,0.000885,0,0
0:1:10.301,102.46,13.0449,0,0.000885,0,0
0:1:11.004,103.692,13.2035,0,0.000885,0,0
0:1:11.713,105.921,13.4861,0,0.000885,0,0
0:1:12.416,106.86,13.6034,0,0.000885,0,0
0:1:13.111,108.15,13.7688,0,0.000885,0,0
0:1:13.811,109.502,13.9412,0,0.000885,0,0
0:1:14.505,110.556,14.0791,0,0.000885,0,0
0:1:15.202,112.14,14.279,0,0.000885,0,0
0:1:15.902,113.901,14.4997,0,0.000885,0,0
0:1:16.613,115.191,14.6651,0,0.000885,0,0
0:1:17.319,116.712,14.8582,0,0.000885,0,0
0:1:18.017,118.007,15.0237,0,0.000885,0,0
0:1:18.711,118.883,15.134,0,0.000885,0,0
0:1:19.413,120.938,15.396,0,0.000885,0,0
0:1:20.108,122.05,15.5408,0,0.000885,0,0
0:1:20.805,123.46,15.72,0,0.000885,0,0
0:1:21.514,124.572,15.8579,0,0.000885,0,0
0:1:22.219,125.511,15.982,0,0.000885,0,0
0:1:22.922,127.152,16.1889,0,0.000885,0,0
0:1:23.618,129.03,16.4302,0,0.000885,0,0
0:1:24.314,129.91,16.5405,0,0.000885,0,0
0:1:25.013,132.023,16.8094,0,0.000885,0,0
0:1:25.708,133.193,16.9611,0,0.000885,0,0
0:1:26.416,134.016,17.0645,0,0.000885,0,0
0:1:27.125,135.542,17.2576,0,0.000885,0,0
0:1:27.824,136.832,17.4231,0,0.000885,0,0
0:1:28.524,137.886,17.5541,0,0.000885,0,0
0:1:29.217,139.941,17.8161,0,0.000885,0,0
0:1:29.916,141.582,18.0298,0,0.000885,0,0
0:1:30.613,142.637,18.1608,0,0.000885,0,0
0:1:31.314,143.633,18.2849,0,0.000885,0,0
0:1:32.025,144.928,18.4504,0,0.000885,0,0
0:1:32.725,146.511,18.6572,0,0.000885,0,0
0:1:33.421,148.095,18.8572,0,0.000885,0,0
0:1:34.121,149.442,19.0295,0,0.000885,0,0
0:1:34.815,150.79,19.2019,0,0.000885,0,0
0:1:35.514,152.258,19.3881,0,0.000885,0,0
0:1:36.212,153.664,19.5673,0,0.000885,0,0
0:1:36.921,154.838,19.7121,0,0.000885,0,0
0:1:37.627,155.719,19.8293,0,0.000885,0,0
0:1:38.324,157.302,20.0293,0,0.000885,0,0
0:1:39.017,158.53,20.1878,0,0.000885,0,0
0:1:39.718,160.643,20.4567,0,0.000885,0,0
0:1:40.415,161.875,20.6084,0,0.000885,0,0
0:1:41.116,163.05,20.7601,0,0.000885,0,0
0:1:41.823,164.34,20.9256,0,0.000885,0,0
0:1:42.526,165.514,21.0704,0,0.000885,0,0
0:1:43.221,167.387,21.3117,0,0.000885,0,0
0:1:43.921,168.797,21.491,0,0.000885,0,0
0:1:44.613,170.144,21.6633,0,0.000885,0,0
0:1:45.310,171.492,21.8357,0,0.000885,0,0
0:1:46.010,173.018,22.0287,0,0.000885,0,0
0:1:46.718,173.547,22.0977,0,0.000885,0,0
0:1:47.423,175.718,22.3735,0,0.000885,0,0
0:1:48.121,177.008,22.539,0,0.000885,0,0
0:1:48.815,178.534,22.732,0,0.000885,0,0
0:1:49.513,179.882,22.9044,0,0.000885,0,0
0:1:50.210,181.056,23.0492,0,0.000885,0,0
0:1:50.905,182.346,23.2146,0,0.000885,0,0
0:1:51.614,183.636,23.3801,0,0.000885,0,0
0:1:52.320,185.099,23.5663,0,0.000885,0,0
0:1:53.020,186.509,23.7455,0,0.000885,0,0
0:1:53.719,187.799,23.911,0,0.000885,0,0
0:1:54.414,189.325,24.1041,0,0.000885,0,0
0:1:55.111,190.264,24.2282,0,0.000885,0,0
0:1:55.811,192.372,24.4971,0,0.000885,0,0
0:1:56.518,193.547,24.6419,0,0.000885,0,0
0:1:57.218,194.894,24.8142,0,0.000885,0,0
0:1:57.910,196.011,24.959,0,0.000885,0,0
0:1:58.599,197.181,25.1038,0,0.000885,0,0
0:1:59.292,198.475,25.2693,0,0.000885,0,0
0:1:59.983,199.939,25.4554,0,0.000885,0,0
0:2:0.683,201.7,25.683,0,0.000885,0,0
0:2:1.388,202.519,25.7864,0,0.000885,0,0
0:2:2.088,204.222,26.0001,0,0.000885,0,0
0:2:2.781,205.219,26.1311,0,0.000885,0,0
0:2:3.484,207.154,26.3724,0,0.000885,0,0
0:2:4.183,208.266,26.5172,0,0.000885,0,0
0:2:4.874,210.085,26.7517,0,0.000885,0,0
0:2:5.576,210.85,26.8482,0,0.000885,0,0
0:2:6.283,212.434,27.0481,0,0.000885,0,0
0:2:6.989,213.839,27.2274,0,0.000885,0,0
0:2:7.687,214.894,27.3584,0,0.000885,0,0
0:2:8.387,217.006,27.6273,0,0.000885,0,0
0:2:9.088,218.181,27.779,0,0.000885,0,0
0:2:9.790,219.529,27.9513,0,0.000885,0,0
0:2:10.489,220.583,28.0823,0,0.000885,0,0
0:2:11.192,221.699,28.2271,0,0.000885,0,0
0:2:11.896,223.577,28.4685,0,0.000885,0,0
0:2:12.596,225.102,28.6615,0,0.000885,0,0
0:2:13.290,226.156,28.7925,0,0.000885,0,0
0:2:13.987,227.504,28.9649,0,0.000885,0,0
0:2:14.691,229.146,29.1786,0,0.000885,0,0
0:2:15.392,230.671,29.3717,0,0.000885,0,0
0:2:16.088,231.61,29.4889,0,0.000885,0,0
0:2:16.792,233.194,29.6888,0,0.000885,0,0
0:2:17.489,234.719,29.8888,0,0.000885,0,0
0:2:18.188,235.894,30.0336,0,0.000885,0,0
0:2:18.884,237.241,30.2059,0,0.000885,0,0
0:2:19.583,238.589,30.3783,0,0.000885,0,0
0:2:20.283,239.937,30.5507,0,0.000885,0,0
0:2:20.990,241.521,30.7506,0,0.000885,0,0
0:2:21.693,242.815,30.9161,0,0.000885,0,0
0:2:22.394,244.221,31.0954,0,0.000885,0,0
0:2:23.086,244.808,31.1712,0,0.000885,0,0
0:2:23.783,246.507,31.3849,0,0.000885,0,0
0:2:24.488,248.211,31.6056,0,0.000885,0,0
0:2:25.190,249.732,31.7986,0,0.000885,0,0
0:2:25.886,251.084,31.971,0,0.000885,0,0
0:2:26.591,252.668,32.1709,0,0.000885,0,0
0:2:27.292,253.371,32.2606,0,0.000885,0,0
0:2:27.987,254.661,32.426,0,0.000885,0,0
0:2:28.693,256.774,32.6949,0,0.000885,0,0
0:2:29.392,257.77,32.819,0,0.000885,0,0
0:2:30.092,258.531,32.9156,0,0.000885,0,0
0:2:30.787,260.114,33.1155,0,0.000885,0,0
0:2:31.492,261.698,33.3224,0,0.000885,0,0
0:2:32.194,262.988,33.4878,0,0.000885,0,0
0:2:32.887,264.571,33.6878,0,0.000885,0,0
0:2:33.586,265.861,33.8533,0,0.000885,0,0
0:2:34.290,266.858,33.9774,0,0.000885,0,0
0:2:34.991,268.561,34.1911,0,0.000885,0,0
0:2:35.690,269.206,34.2738,0,0.000885,0,0
0:2:36.394,270.906,34.4945,0,0.000885,0,0
0:2:37.094,272.138,34.6531,0,0.000885,0,0
0:2:37.788,272.431,34.6875,0,0.000885,0,0
0:2:38.492,273.548,34.8323,0,0.000885,0,0
0:2:39.188,273.312,34.7978,0,0.000885,0,0
0:2:39.887,271.964,34.6255,0,0.000885,0,0
0:2:40.589,268.677,34.2118,0,0.000885,0,0
0:2:41.293,264.513,33.6809,0,0.000885,0,0
0:2:41.995,259.06,32.9845,0,0.000885,0,0
0:2:42.692,252.899,32.1985,0,0.000885,0,0
0:2:43.389,240.409,30.6127,0,0.000885,0,0
0:2:44.092,224.101,28.5305,0,0.000885,0,0
0:2:44.790,209.44,26.6689,0,0.000885,0,0
0:2:45.447,193.782,24.6763,0,0.000885,0,0

File: DataFile2021-06-08_072457.csv
Test ID:,Date Tested:,Time:,Test Type:,Diameter Avg. (mm):,Cyl. Corr. Factor:,Height (mm):,Age (days):,Weight (kN):,Break Type:,Ramp Rate (MPa/s):,Load at Break (kN):,Stress at Break (MPa):
12,6/8/2021,07:24,Cylinder,100,1,200,0,3.6,3,0.19,160.23,20.4
Sample Time,Load (kN),Stress (MPa),Long. Strain,Trans. Strain,Chan1 Deflection (mm),Chan2 Deflection (mm)
0:0:12.412,5.98286,0.758423,0,0.000885,0,0
0:0:12.911,9.79498,1.24795,0,0.000885,0,0
0:0:13.405,9.32347,1.1859,0,0.000885,0,0
0:0:13.902,8.79858,1.11695,0,0.000885,0,0
0:0:14.396,8.91424,1.13763,0,0.000885,0,0
0:0:14.894,9.61706,1.22727,0,0.000885,0,0
0:0:15.389,9.14999,1.16521,0,0.000885,0,0
0:0:15.886,10.8492,1.37895,0,0.000885,0,0
0:0:16.382,12.4906,1.59269,0,0.000885,0,0
0:0:16.889,13.6071,1.73058,0,0.000885,0,0
0:0:17.384,14.4879,1.84779,0,0.000885,0,0
0:0:17.878,15.8935,2.02706,0,0.000885,0,0
0:0:18.386,16.4228,2.08911,0,0.000885,0,0
0:0:18.890,17.4771,2.22701,0,0.000885,0,0
0:0:19.394,18.767,2.39248,0,0.000885,0,0
0:0:19.892,19.0606,2.42695,0,0.000885,0,0
0:0:20.390,20.5285,2.61311,0,0.000885,0,0
0:0:20.886,21.4093,2.72343,0,0.000885,0,0
0:0:21.383,22.2278,2.82685,0,0.000885,0,0
0:0:21.888,23.3443,2.97164,0,0.000885,0,0
0:0:22.387,24.5764,3.13022,0,0.000885,0,0
0:0:22.893,25.2214,3.21296,0,0.000885,0,0
0:0:23.399,26.8628,3.4198,0,0.000885,0,0
0:0:23.902,28.095,3.57838,0,0.000885,0,0
0:0:24.401,29.5006,3.75764,0,0.000885,0,0
0:0:24.899,30.497,3.88175,0,0.000885,0,0
0:0:25.397,31.2621,3.97827,0,0.000885,0,0
0:0:25.895,32.432,4.12996,0,0.000885,0,0
0:0:26.394,32.8457,4.18512,0,0.000885,0,0
0:0:26.890,34.0778,4.3368,0,0.000885,0,0
0:0:27.388,34.8963,4.44022,0,0.000885,0,0
0:0:27.886,36.0706,4.59191,0,0.000885,0,0
0:0:28.394,36.5377,4.65396,0,0.000885,0,0
0:0:28.896,37.4763,4.77117,0,0.000885,0,0
0:0:29.399,38.2414,4.8677,0,0.000885,0,0
0:0:29.898,39.1799,4.9918,0,0.000885,0,0
0:0:30.395,40.3498,5.13659,0,0.000885,0,0
0:0:30.893,41.2884,5.25381,0,0.000885,0,0
0:0:31.389,42.5206,5.41238,0,0.000885,0,0
0:0:31.886,43.2856,5.50891,0,0.000885,0,0
0:0:32.392,44.927,5.72265,0,0.000885,0,0
0:0:32.890,45.2784,5.76402,0,0.000885,0,0
0:0:33.397,46.3327,5.90191,0,0.000885,0,0
0:0:33.900,48.2677,6.14323,0,0.000885,0,0
0:0:34.404,48.6191,6.19149,0,0.000885,0,0
0:0:34.900,49.5576,6.3087,0,0.000885,0,0
0:0:35.397,50.8521,6.47418,0,0.000885,0,0
0:0:35.893,51.7284,6.58449,0,0.000885,0,0
0:0:36.391,52.4356,6.67413,0,0.000885,0,0
0:0:36.887,53.1963,6.77065,0,0.000885,0,0
0:0:37.385,54.4284,6.92923,0,0.000885,0,0
0:0:37.891,55.1313,7.01886,0,0.000885,0,0
0:0:38.394,55.9542,7.12228,0,0.000885,0,0
0:0:38.896,56.9506,7.25328,0,0.000885,0,0
0:0:39.394,57.7691,7.35671,0,0.000885,0,0
0:0:39.890,58.9434,7.50839,0,0.000885,0,0
0:0:40.388,60.7627,7.73592,0,0.000885,0,0
0:0:40.884,61.7591,7.86002,0,0.000885,0,0
0:0:41.379,62.3463,7.93587,0,0.000885,0,0
0:0:41.876,63.5206,8.08755,0,0.000885,0,0
0:0:42.386,64.1656,8.17029,0,0.000885,0,0
0:0:42.888,65.162,8.29439,0,0.000885,0,0
0:0:43.393,65.9805,8.39781,0,0.000885,0,0
0:0:43.896,66.919,8.52192,0,0.000885,0,0
0:0:44.394,67.7998,8.63224,0,0.000885,0,0
0:0:44.891,68.854,8.77013,0,0.000885,0,0
0:0:45.388,70.2641,8.94939,0,0.000885,0,0
0:0:45.886,71.2027,9.06661,0,0.000885,0,0
0:0:46.393,71.8477,9.14934,0,0.000885,0,0
0:0:46.891,72.7284,9.25966,0,0.000885,0,0
0:0:47.388,73.4312,9.34929,0,0.000885,0,0
0:0:47.894,74.4855,9.48719,0,0.000885,0,0
0:0:48.400,75.8956,9.66645,0,0.000885,0,0
0:0:48.904,77.0076,9.80434,0,0.000885,0,0
0:0:49.408,78.1819,9.95603,0,0.000885,0,0
0:0:49.903,79.0004,10.0595,0,0.000885,0,0
0:0:50.400,80.0013,10.1836,0,0.000885,0,0
0:0:50.896,80.3527,10.2318,0,0.000885,0,0
0:0:51.393,81.3491,10.3559,0,0.000885,0,0
0:0:51.890,82.7547,10.5352,0,0.000885,0,0
0:0:52.395,83.929,10.6869,0,0.000885,0,0
0:0:52.891,84.574,10.7696,0,0.000885,0,0
0:0:53.397,85.5126,10.8868,0,0.000885,0,0
0:0:53.901,86.5668,11.0247,0,0.000885,0,0
0:0:54.406,87.3898,11.1281,0,0.000885,0,0
0:0:54.902,88.5641,11.2729,0,0.000885,0,0
0:0:55.401,89.734,11.4246,0,0.000885,0,0
0:0:55.898,90.8505,11.5694,0,0.000885,0,0
0:0:56.394,91.4376,11.6452,0,0.000885,0,0
0:0:56.889,92.6075,11.79,0,0.000885,0,0
0:0:57.388,93.7819,11.9417,0,0.000885,0,0
0:0:57.895,94.2534,12.0038,0,0.000885,0,0
0:0:58.399,95.3654,12.1417,0,0.000885,0,0
0:0:58.902,96.1261,12.2382,0,0.000885,0,0
0:0:59.399,97.4783,12.4106,0,0.000885,0,0
0:0:59.895,98.3546,12.5209,0,0.000885,0,0
0:1:0.392,99.6491,12.6864,0,0.000885,0,0
0:1:0.888,100.703,12.8242,0,0.000885,0,0
0:1:1.396,101.522,12.9277,0,0.000885,0,0
0:1:1.894,102.58,13.0587,0,0.000885,0,0
0:1:2.391,103.105,13.1276,0,0.000885,0,0
0:1:2.893,103.87,13.2241,0,0.000885,0,0
0:1:3.399,105.103,13.3827,0,0.000885,0,0
0:1:3.903,105.57,13.4448,0,0.000885,0,0
0:1:4.403,107.153,13.6447,0,0.000885,0,0
0:1:4.901,108.092,13.7619,0,0.000885,0,0
0:1:5.399,109.853,13.9895,0,0.000885,0,0
0:1:5.896,110.263,14.0377,0,0.000885,0,0
0:1:6.394,111.201,14.1618,0,0.000885,0,0
0:1:6.892,112.375,14.3066,0,0.000885,0,0
0:1:7.399,114.017,14.5204,0,0.000885,0,0
0:1:7.895,114.132,14.5341,0,0.000885,0,0
0:1:8.403,115.543,14.7134,0,0.000885,0,0
0:1:8.906,116.188,14.7961,0,0.000885,0,0
0:1:9.410,117.3,14.934,0,0.000885,0,0
0:1:9.907,118.007,15.0237,0,0.000885,0,0
0:1:10.405,118.768,15.1202,0,0.000885,0,0
0:1:10.903,119.822,15.2581,0,0.000885,0,0
0:1:11.401,121.054,15.4098,0,0.000885,0,0
0:1:11.900,121.699,15.4925,0,0.000885,0,0
0:1:12.397,122.637,15.6166,0,0.000885,0,0
0:1:12.894,123.754,15.7545,0,0.000885,0,0
0:1:13.398,124.924,15.9062,0,0.000885,0,0
0:1:13.904,126.156,16.0648,0,0.000885,0,0
0:1:14.404,126.921,16.1613,0,0.000885,0,0
0:1:14.904,127.74,16.2647,0,0.000885,0,0
0:1:15.402,128.62,16.375,0,0.000885,0,0
0:1:15.899,129.501,16.4854,0,0.000885,0,0
0:1:16.397,130.44,16.6095,0,0.000885,0,0
0:1:16.893,131.378,16.7267,0,0.000885,0,0
0:1:17.390,132.668,16.8922,0,0.000885,0,0
0:1:17.896,133.665,17.0163,0,0.000885,0,0
0:1:18.401,134.661,17.1473,0,0.000885,0,0
0:1:18.904,135.6,17.2645,0,0.000885,0,0
0:1:19.403,136.009,17.3196,0,0.000885,0,0
0:1:19.900,137.419,17.4989,0,0.000885,0,0
0:1:20.398,138.531,17.6368,0,0.000885,0,0
0:1:20.895,139.238,17.7264,0,0.000885,0,0
0:1:21.394,140.644,17.9057,0,0.000885,0,0
0:1:21.891,141.876,18.0643,0,0.000885,0,0
0:1:22.385,142.463,18.1401,0,0.000885,0,0
0:1:22.894,143.344,18.2504,0,0.000885,0,0
0:1:23.398,144.22,18.3607,0,0.000885,0,0
0:1:23.903,145.395,18.5124,0,0.000885,0,0
0:1:24.401,146.627,18.671,0,0.000885,0,0
0:1:24.897,147.387,18.7675,0,0.000885,0,0
0:1:25.396,149.149,18.9882,0,0.000885,0,0
0:1:25.892,149.442,19.0295,0,0.000885,0,0
0:1:26.390,150.79,19.2019,0,0.000885,0,0
0:1:26.884,151.787,19.326,0,0.000885,0,0
0:1:27.382,152.022,19.3536,0,0.000885,0,0
0:1:27.884,152.961,19.4777,0,0.000885,0,0
0:1:28.393,154.429,19.6638,0,0.000885,0,0
0:1:28.896,154.718,19.6983,0,0.000885,0,0
0:1:29.396,155.483,19.7948,0,0.000885,0,0
0:1:29.893,156.302,19.8983,0,0.000885,0,0
0:1:30.391,157.36,20.0362,0,0.000885,0,0
0:1:30.897,158.415,20.1672,0,0.000885,0,0
0:1:31.394,158.592,20.1947,0,0.000885,0,0
0:1:31.892,159.705,20.3326,0,0.000885,0,0
0:1:32.392,160.821,20.4774,0,0.000885,0,0
0:1:32.898,160.47,20.4292,0,0.000885,0,0
0:1:33.404,159.94,20.3671,0,0.000885,0,0
0:1:33.906,157.302,20.0293,0,0.000885,0,0
0:1:34.408,155.363,19.7811,0,0.000885,0,0
0:1:34.905,155.657,19.8224,0,0.000885,0,0
0:1:35.402,158.063,20.1258,0,0.000885,0,0
0:1:35.898,159.469,20.3051,0,0.000885,0,0
0:1:36.394,158.472,20.1741,0,0.000885,0,0
0:1:36.890,155.19,19.7604,0,0.000885,0,0
0:1:37.394,153.957,19.6018,0,0.000885,0,0
0:1:37.891,153.312,19.5191,0,0.000885,0,0
0:1:38.396,155.19,19.7604,0,0.000885,0,0
0:1:38.901,156.595,19.9396,0,0.000885,0,0
0:1:39.403,157.125,20.0086,0,0.000885,0,0
0:1:39.898,156.422,19.919,0,0.000885,0,0
0:1:40.396,155.599,19.8086,0,0.000885,0,0
0:1:40.891,156.48,19.9258,0,0.000885,0,0
0:1:41.384,156.773,19.9603,0,0.000885,0,0
0:1:41.879,156.773,19.9603,0,0.000885,0,0
0:1:42.377,156.07,19.8707,0,0.000885,0,0
0:1:42.882,154.66,19.6914,0,0.000885,0,0
0:1:43.390,153.779,19.5811,0,0.000885,0,0
0:1:43.892,151.965,19.3467,0,0.000885,0,0
0:1:44.387,149.091,18.9813,0,0.000885,0,0
0:1:44.894,146.92,18.7055,0,0.000885,0,0
0:1:45.391,143.753,18.3056,0,0.000885,0,0
0:1:45.897,139.821,17.8023,0,0.000885,0,0
0:1:46.393,134.839,17.1679,0,0.000885,0,0
0:1:46.899,129.617,16.506,0,0.000885,0,0
0:1:47.395,125.925,16.0303,0,0.000885,0,0
0:1:47.895,120.525,15.3477,0,0.000885,0,0
0:1:48.349,113.372,14.4376,0,0.000885,0,0