Folder: Experiment-Files (part 48)

File: DataFile2021-06-29_044659.csv
Test ID:,Date Tested:,Time:,Test Type:,Width (mm):,Depth (mm):,Height (mm):,Age (days):,Weight (kN):,Ramp Rate (MPa/s):,Load at Break (kN):,Stress at Break (MPa):
12,6/29/2021,04:46,Cube,100,100,100,7,8.37,0.02,33.37,3.34
Sample Time,Load (kN),Stress (MPa),Long. Strain,Trans. Strain,Chan1 Deflection (mm),Chan2 Deflection (mm)
0:0:13.803,9.26565,0.923897,0,0.000885,0,0
0:0:14.096,10.7914,1.08248,0,0.000885,0,0
0:0:14.390,10.6179,1.06179,0,0.000885,0,0
0:0:14.681,10.3821,1.04111,0,0.000885,0,0
0:0:14.978,10.8492,1.08248,0,0.000885,0,0
0:0:15.279,10.3821,1.04111,0,0.000885,0,0
0:0:15.583,10.5556,1.0549,0,0.000885,0,0
0:0:15.877,10.9693,1.09627,0,0.000885,0,0
0:0:16.177,10.907,1.08937,0,0.000885,0,0
0:0:16.471,11.1428,1.11695,0,0.000885,0,0
0:0:16.770,11.2629,1.12385,0,0.000885,0,0
0:0:17.078,11.6143,1.15832,0,0.000885,0,0
0:0:17.379,12.375,1.23416,0,0.000885,0,0
0:0:17.671,12.4328,1.24106,0,0.000885,0,0
0:0:17.979,12.5529,1.25485,0,0.000885,0,0
0:0:18.279,13.3135,1.33069,0,0.000885,0,0
0:0:18.576,13.5493,1.35827,0,0.000885,0,0
0:0:18.878,13.785,1.37895,0,0.000885,0,0
0:0:19.173,14.7814,1.47548,0,0.000885,0,0
0:0:19.478,14.7814,1.47548,0,0.000885,0,0
0:0:19.772,15.0127,1.50306,0,0.000885,0,0
0:0:20.072,15.1907,1.51685,0,0.000885,0,0
0:0:20.369,15.8935,1.59269,0,0.000885,0,0
0:0:20.666,16.0136,1.59958,0,0.000885,0,0
0:0:20.969,16.4807,1.64785,0,0.000885,0,0
0:0:21.271,16.7742,1.67543,0,0.000885,0,0
0:0:21.568,16.8899,1.68922,0,0.000885,0,0
0:0:21.870,17.4192,1.74437,0,0.000885,0,0
0:0:22.177,17.7128,1.77195,0,0.000885,0,0
0:0:22.481,18.0064,1.79953,0,0.000885,0,0
0:0:22.782,18.1799,1.82022,0,0.000885,0,0
0:0:23.080,18.4735,1.84779,0,0.000885,0,0
0:0:23.379,18.4735,1.84779,0,0.000885,0,0
0:0:23.673,18.767,1.87537,0,0.000885,0,0
0:0:23.967,19.0028,1.90295,0,0.000885,0,0
0:0:24.266,19.4699,1.94432,0,0.000885,0,0
0:0:24.566,19.5321,1.95122,0,0.000885,0,0
0:0:24.863,20.1193,2.01327,0,0.000885,0,0
0:0:25.160,19.8836,1.98569,0,0.000885,0,0
0:0:25.458,20.3506,2.03395,0,0.000885,0,0
0:0:25.769,20.3506,2.03395,0,0.000885,0,0
0:0:26.065,20.88,2.08911,0,0.000885,0,0
0:0:26.368,21.6406,2.16495,0,0.000885,0,0
0:0:26.673,21.8185,2.17874,0,0.000885,0,0
0:0:26.979,22.1121,2.21322,0,0.000885,0,0
0:0:27.282,22.2856,2.22701,0,0.000885,0,0
0:0:27.578,22.4635,2.24769,0,0.000885,0,0
0:0:27.877,22.9929,2.29595,0,0.000885,0,0
0:0:28.173,23.1663,2.31664,0,0.000885,0,0
0:0:28.477,23.8113,2.37869,0,0.000885,0,0
0:0:28.780,24.0471,2.40627,0,0.000885,0,0
0:0:29.085,24.1627,2.41317,0,0.000885,0,0
0:0:29.383,24.6343,2.46143,0,0.000885,0,0
0:0:29.683,24.6921,2.46832,0,0.000885,0,0
0:0:29.981,25.2214,2.52348,0,0.000885,0,0
0:0:30.279,25.7463,2.57174,0,0.000885,0,0
0:0:30.574,25.9821,2.59932,0,0.000885,0,0
0:0:30.880,26.16,2.61311,0,0.000885,0,0
0:0:31.174,26.4536,2.64759,0,0.000885,0,0
0:0:31.479,26.6849,2.66827,0,0.000885,0,0
0:0:31.784,27.0986,2.70964,0,0.000885,0,0
0:0:32.078,27.0986,2.70964,0,0.000885,0,0
0:0:32.381,27.7436,2.77169,0,0.000885,0,0
0:0:32.678,28.2684,2.82685,0,0.000885,0,0
0:0:32.986,28.562,2.85443,0,0.000885,0,0
0:0:33.283,28.2106,2.81996,0,0.000885,0,0
0:0:33.586,28.6199,2.86132,0,0.000885,0,0
0:0:33.879,28.9134,2.8889,0,0.000885,0,0
0:0:34.184,29.3271,2.93027,0,0.000885,0,0
0:0:34.485,29.385,2.93717,0,0.000885,0,0
0:0:34.784,30.2034,3.0199,0,0.000885,0,0
0:0:35.081,30.3235,3.03369,0,0.000885,0,0
0:0:35.378,30.1456,3.01301,0,0.000885,0,0
0:0:35.674,30.6749,3.06817,0,0.000885,0,0
0:0:35.978,31.0842,3.10954,0,0.000885,0,0
0:0:36.271,31.0263,3.10264,0,0.000885,0,0
0:0:36.583,31.2621,3.12333,0,0.000885,0,0
0:0:36.880,31.2043,3.12333,0,0.000885,0,0
0:0:37.183,32.1384,3.21296,0,0.000885,0,0
0:0:37.483,32.0806,3.20606,0,0.000885,0,0
0:0:37.779,32.3742,3.24054,0,0.000885,0,0
0:0:38.081,33.0191,3.30259,0,0.000885,0,0
0:0:38.375,33.6063,3.35775,0,0.000885,0,0
0:0:38.679,33.7842,3.37843,0,0.000885,0,0
0:0:38.983,33.5485,3.35775,0,0.000885,0,0
0:0:39.275,33.4907,3.35085,0,0.000885,0,0
0:0:39.572,32.9035,3.2888,0,0.000885,0,0
0:0:39.872,32.8457,3.2819,0,0.000885,0,0
0:0:40.169,33.077,3.30948,0,0.000885,0,0
0:0:40.467,32.7878,3.2819,0,0.000885,0,0
0:0:40.764,32.2007,3.21985,0,0.000885,0,0
0:0:41.067,31.6135,3.16469,0,0.000885,0,0
0:0:41.371,31.2621,3.12333,0,0.000885,0,0
0:0:41.672,30.1456,3.01301,0,0.000885,0,0
0:0:41.968,28.6821,2.86822,0,0.000885,0,0
0:0:42.282,27.3299,2.73032,0,0.000885,0,0
0:0:42.585,27.1564,2.71653,0,0.000885,0,0
0:0:42.880,26.7427,2.67517,0,0.000885,0,0
0:0:43.180,26.5114,2.64759,0,0.000885,0,0
0:0:43.476,26.6271,2.66138,0,0.000885,0,0
0:0:43.787,25.7463,2.57174,0,0.000885,0,0
0:0:44.084,24.8077,2.48211,0,0.000885,0,0
0:0:44.384,23.7535,2.37869,0,0.000885,0,0
0:0:44.682,22.1121,2.21322,0,0.000885,0,0
0:0:44.980,21.0534,2.1029,0,0.000885,0,0
0:0:45.275,21.4093,2.13737,0,0.000885,0,0
0:0:45.572,21.347,2.13737,0,0.000885,0,0
0:0:45.884,21.347,2.13737,0,0.000885,0,0
0:0:46.179,21.4093,2.13737,0,0.000885,0,0
0:0:46.470,21.7029,2.17185,0,0.000885,0,0
0:0:46.782,21.7607,2.17874,0,0.000885,0,0
0:0:47.079,21.992,2.19943,0,0.000885,0,0
0:0:47.389,22.4057,2.2408,0,0.000885,0,0
0:0:47.685,22.2856,2.22701,0,0.000885,0,0
0:0:47.975,22.2278,2.22011,0,0.000885,0,0
0:0:48.280,21.9342,2.19253,0,0.000885,0,0
0:0:48.585,21.992,2.19943,0,0.000885,0,0
0:0:48.885,21.7607,2.17874,0,0.000885,0,0
0:0:49.181,22.2856,2.22701,0,0.000885,0,0
0:0:49.480,22.2278,2.22011,0,0.000885,0,0
0:0:49.780,22.3479,2.2339,0,0.000885,0,0
0:0:50.075,22.0543,2.20632,0,0.000885,0,0
0:0:50.373,21.8185,2.17874,0,0.000885,0,0
0:0:50.670,21.9342,2.19253,0,0.000885,0,0
0:0:50.970,21.992,2.19943,0,0.000885,0,0
0:0:51.274,22.2856,2.22701,0,0.000885,0,0
0:0:51.580,22.2278,2.22011,0,0.000885,0,0
0:0:51.881,21.8764,2.18564,0,0.000885,0,0
0:0:52.186,22.2278,2.22011,0,0.000885,0,0
0:0:52.487,22.2278,2.22011,0,0.000885,0,0
0:0:52.784,22.1121,2.21322,0,0.000885,0,0
0:0:53.084,21.992,2.19943,0,0.000885,0,0
0:0:53.386,22.3479,2.2339,0,0.000885,0,0
0:0:53.682,22.2278,2.22011,0,0.000885,0,0
0:0:53.990,21.9342,2.19253,0,0.000885,0,0
0:0:54.288,22.1699,2.22011,0,0.000885,0,0
0:0:54.588,21.7029,2.17185,0,0.000885,0,0
0:0:54.886,21.4093,2.13737,0,0.000885,0,0
0:0:55.184,21.5249,2.15116,0,0.000885,0,0
0:0:55.481,21.5249,2.15116,0,0.000885,0,0
0:0:55.787,21.6406,2.16495,0,0.000885,0,0
0:0:56.076,21.8764,2.18564,0,0.000885,0,0
0:0:56.373,22.0543,2.20632,0,0.000885,0,0
0:0:56.673,22.2856,2.22701,0,0.000885,0,0
0:0:56.976,22.4057,2.2408,0,0.000885,0,0
0:0:57.282,22.2856,2.22701,0,0.000885,0,0
0:0:57.582,22.6993,2.26838,0,0.000885,0,0
0:0:57.877,22.8149,2.28216,0,0.000885,0,0
0:0:58.176,22.7571,2.27527,0,0.000885,0,0
0:0:58.485,22.6993,2.26838,0,0.000885,0,0
0:0:58.786,22.637,2.26148,0,0.000885,0,0
0:0:59.088,22.5792,2.26148,0,0.000885,0,0
0:0:59.384,22.3479,2.2339,0,0.000885,0,0
0:0:59.681,22.7571,2.27527,0,0.000885,0,0
0:0:59.983,22.5792,2.26148,0,0.000885,0,0
0:1:0.277,22.8149,2.28216,0,0.000885,0,0
0:1:0.573,22.5213,2.25459,0,0.000885,0,0
0:1:0.871,22.3479,2.2339,0,0.000885,0,0
0:1:1.173,22.3479,2.2339,0,0.000885,0,0
0:1:1.470,22.1699,2.22011,0,0.000885,0,0
0:1:1.768,22.1699,2.22011,0,0.000885,0,0
0:1:2.073,22.7571,2.27527,0,0.000885,0,0
0:1:2.388,22.4635,2.24769,0,0.000885,0,0
0:1:2.689,22.5792,2.26148,0,0.000885,0,0
0:1:2.985,22.5792,2.26148,0,0.000885,0,0
0:1:3.285,22.7571,2.27527,0,0.000885,0,0
0:1:3.582,22.4057,2.2408,0,0.000885,0,0
0:1:3.881,22.4057,2.2408,0,0.000885,0,0
0:1:4.177,22.4057,2.2408,0,0.000885,0,0
0:1:4.476,22.1699,2.22011,0,0.000885,0,0
0:1:4.775,21.7607,2.17874,0,0.000885,0,0
0:1:5.072,21.2892,2.13048,0,0.000885,0,0
0:1:5.369,21.4671,2.14427,0,0.000885,0,0
0:1:5.666,21.347,2.13737,0,0.000885,0,0
0:1:5.966,21.7029,2.17185,0,0.000885,0,0
0:1:6.269,21.1157,2.1098,0,0.000885,0,0
0:1:6.565,21.347,2.13737,0,0.000885,0,0
0:1:6.874,21.1157,2.1098,0,0.000885,0,0
0:1:7.171,20.9378,2.09601,0,0.000885,0,0
0:1:7.484,20.8221,2.08222,0,0.000885,0,0
0:1:7.788,20.4707,2.04774,0,0.000885,0,0
0:1:8.090,20.4084,2.04085,0,0.000885,0,0
0:1:8.390,20.1193,2.01327,0,0.000885,0,0
0:1:8.688,19.5321,1.95122,0,0.000885,0,0
0:1:8.987,19.5321,1.95122,0,0.000885,0,0
0:1:9.284,19.6478,1.96501,0,0.000885,0,0
0:1:9.585,19.5321,1.95122,0,0.000885,0,0
0:1:9.882,18.8871,1.88916,0,0.000885,0,0
0:1:10.178,18.945,1.89606,0,0.000885,0,0
0:1:10.474,18.8871,1.88916,0,0.000885,0,0
0:1:10.772,18.4735,1.84779,0,0.000885,0,0
0:1:11.083,18.4156,1.8409,0,0.000885,0,0
0:1:11.386,18.0642,1.80643,0,0.000885,0,0
0:1:11.678,17.4192,1.74437,0,0.000885,0,0
0:1:11.982,17.01,1.70301,0,0.000885,0,0
0:1:12.148,17.1835,1.71679,0,0.000885,0,0

File: DataFile2021-06-29_044908.csv
Test ID:,Date Tested:,Time:,Test Type:,Width (mm):,Depth (mm):,Height (mm):,Age (days):,Weight (kN):,Ramp Rate (MPa/s):,Load at Break (kN):,Stress at Break (MPa):
12,6/29/2021,04:49,Cube,100,100,100,7,8.37,0.01,36.89,3.69
Sample Time,Load (kN),Stress (MPa),Long. Strain,Trans. Strain,Chan1 Deflection (mm),Chan2 Deflection (mm)
0:0:9.010,9.91064,0.992845,0,0.000885,0,0
0:0:9.303,11.9079,1.19279,0,0.000885,0,0
0:0:9.596,11.6143,1.15832,0,0.000885,0,0
0:0:9.893,11.2629,1.12385,0,0.000885,0,0
0:0:10.182,11.1428,1.11695,0,0.000885,0,0
0:0:10.478,11.2629,1.12385,0,0.000885,0,0
0:0:10.769,10.7336,1.07558,0,0.000885,0,0
0:0:11.063,10.6179,1.06179,0,0.000885,0,0
0:0:11.358,10.6757,1.06869,0,0.000885,0,0
0:0:11.666,10.5556,1.0549,0,0.000885,0,0
0:0:11.964,11.2629,1.12385,0,0.000885,0,0
0:0:12.263,11.6143,1.15832,0,0.000885,0,0
0:0:12.558,11.9079,1.19279,0,0.000885,0,0
0:0:12.861,11.73,1.17211,0,0.000885,0,0
0:0:13.161,11.6721,1.16521,0,0.000885,0,0
0:0:13.455,12.1392,1.21348,0,0.000885,0,0
0:0:13.767,13.0778,1.31,0,0.000885,0,0
0:0:14.065,13.3135,1.33069,0,0.000885,0,0
0:0:14.365,14.0163,1.39964,0,0.000885,0,0
0:0:14.663,14.8971,1.48927,0,0.000885,0,0
0:0:14.963,15.0127,1.50306,0,0.000885,0,0
0:0:15.261,15.3063,1.53064,0,0.000885,0,0
0:0:15.559,15.6577,1.56511,0,0.000885,0,0
0:0:15.867,16.2449,1.62716,0,0.000885,0,0
0:0:16.164,16.4807,1.64785,0,0.000885,0,0
0:0:16.454,17.2413,1.72369,0,0.000885,0,0
0:0:16.759,17.7706,1.77885,0,0.000885,0,0
0:0:17.065,17.7128,1.77195,0,0.000885,0,0
0:0:17.363,18.0064,1.79953,0,0.000885,0,0
0:0:17.660,17.655,1.76506,0,0.000885,0,0
0:0:17.960,17.9486,1.79264,0,0.000885,0,0
0:0:18.265,18.4156,1.8409,0,0.000885,0,0
0:0:18.559,18.7092,1.86848,0,0.000885,0,0
0:0:18.859,18.7092,1.86848,0,0.000885,0,0
0:0:19.164,18.8871,1.88916,0,0.000885,0,0
0:0:19.464,19.0606,1.90295,0,0.000885,0,0
0:0:19.762,19.59,1.95811,0,0.000885,0,0
0:0:20.060,20.057,2.00637,0,0.000885,0,0
0:0:20.366,20.3506,2.03395,0,0.000885,0,0
0:0:20.665,20.8221,2.08222,0,0.000885,0,0
0:0:20.964,20.4084,2.04085,0,0.000885,0,0
0:0:21.262,21.347,2.13737,0,0.000885,0,0
0:0:21.563,21.5828,2.15806,0,0.000885,0,0
0:0:21.865,21.7029,2.17185,0,0.000885,0,0
0:0:22.160,21.7607,2.17874,0,0.000885,0,0
0:0:22.462,22.3479,2.2339,0,0.000885,0,0
0:0:22.760,22.4635,2.24769,0,0.000885,0,0
0:0:23.060,22.8728,2.28906,0,0.000885,0,0
0:0:23.354,23.4599,2.34422,0,0.000885,0,0
0:0:23.660,23.6957,2.3718,0,0.000885,0,0
0:0:23.962,23.8692,2.38559,0,0.000885,0,0
0:0:24.255,24.1049,2.41317,0,0.000885,0,0
0:0:24.554,24.2828,2.42695,0,0.000885,0,0
0:0:24.854,24.4563,2.44764,0,0.000885,0,0
0:0:25.165,24.87,2.48901,0,0.000885,0,0
0:0:25.462,24.9278,2.4959,0,0.000885,0,0
0:0:25.761,25.515,2.55106,0,0.000885,0,0
0:0:26.061,25.8041,2.57864,0,0.000885,0,0
0:0:26.356,26.2178,2.62001,0,0.000885,0,0
0:0:26.661,26.6849,2.66827,0,0.000885,0,0
0:0:26.965,26.8628,2.68896,0,0.000885,0,0
0:0:27.261,27.272,2.73032,0,0.000885,0,0
0:0:27.564,27.6235,2.7648,0,0.000885,0,0
0:0:27.861,27.8592,2.78548,0,0.000885,0,0
0:0:28.162,28.5042,2.84753,0,0.000885,0,0
0:0:28.467,29.0914,2.90959,0,0.000885,0,0
0:0:28.771,29.0335,2.90269,0,0.000885,0,0
0:0:29.081,28.9713,2.8958,0,0.000885,0,0
0:0:29.378,29.5006,2.95096,0,0.000885,0,0
0:0:29.680,29.4428,2.94406,0,0.000885,0,0
0:0:29.978,30.2657,3.0268,0,0.000885,0,0
0:0:30.276,30.4392,3.04059,0,0.000885,0,0
0:0:30.575,30.2034,3.0199,0,0.000885,0,0
0:0:30.870,30.8484,3.08196,0,0.000885,0,0
0:0:31.164,31.142,3.11643,0,0.000885,0,0
0:0:31.460,31.4934,3.1509,0,0.000885,0,0
0:0:31.762,31.7292,3.17159,0,0.000885,0,0
0:0:32.066,31.9071,3.19227,0,0.000885,0,0
0:0:32.361,32.3742,3.24054,0,0.000885,0,0
0:0:32.661,32.6099,3.26122,0,0.000885,0,0
0:0:32.957,32.6677,3.26811,0,0.000885,0,0
0:0:33.257,32.9035,3.2888,0,0.000885,0,0
0:0:33.565,32.9035,3.2888,0,0.000885,0,0
0:0:33.857,33.3127,3.33017,0,0.000885,0,0
0:0:34.161,33.7842,3.37843,0,0.000885,0,0
0:0:34.456,34.1935,3.4198,0,0.000885,0,0
0:0:34.769,34.4871,3.44738,0,0.000885,0,0
0:0:35.069,34.7806,3.47496,0,0.000885,0,0
0:0:35.367,34.8385,3.48185,0,0.000885,0,0
0:0:35.665,34.8963,3.48875,0,0.000885,0,0
0:0:35.963,35.5991,3.55769,0,0.000885,0,0
0:0:36.263,35.8349,3.58527,0,0.000885,0,0
0:0:36.569,35.2477,3.52322,0,0.000885,0,0
0:0:36.861,35.8349,3.58527,0,0.000885,0,0
0:0:37.164,36.1863,3.61975,0,0.000885,0,0
0:0:37.461,36.5377,3.65422,0,0.000885,0,0
0:0:37.769,37.245,3.72317,0,0.000885,0,0
0:0:38.067,36.9514,3.69559,0,0.000885,0,0
0:0:38.369,36.8313,3.6818,0,0.000885,0,0
0:0:38.662,37.067,3.70938,0,0.000885,0,0
0:0:38.966,36.7734,3.67491,0,0.000885,0,0
0:0:39.267,36.2441,3.62664,0,0.000885,0,0
0:0:39.564,35.8349,3.58527,0,0.000885,0,0
0:0:39.865,34.8385,3.48185,0,0.000885,0,0
0:0:40.161,34.7228,3.47496,0,0.000885,0,0
0:0:40.469,34.2513,3.42669,0,0.000885,0,0
0:0:40.766,34.0778,3.40601,0,0.000885,0,0
0:0:41.064,33.3706,3.33706,0,0.000885,0,0
0:0:41.364,32.6099,3.26122,0,0.000885,0,0
0:0:41.668,31.6135,3.16469,0,0.000885,0,0
0:0:41.961,30.2657,3.0268,0,0.000885,0,0
0:0:42.261,29.3271,2.93027,0,0.000885,0,0
0:0:42.556,28.1528,2.81306,0,0.000885,0,0
0:0:42.868,27.6235,2.7648,0,0.000885,0,0
0:0:43.164,26.9785,2.69585,0,0.000885,0,0
0:0:43.466,26.2756,2.6269,0,0.000885,0,0
0:0:43.767,25.3949,2.53727,0,0.000885,0,0
0:0:44.065,24.6921,2.46832,0,0.000885,0,0
0:0:44.362,24.3407,2.43385,0,0.000885,0,0
0:0:44.661,24.3407,2.43385,0,0.000885,0,0
0:0:44.957,24.9857,2.4959,0,0.000885,0,0
0:0:45.257,24.5764,2.45453,0,0.000885,0,0
0:0:45.555,24.8077,2.48211,0,0.000885,0,0
0:0:45.851,24.9278,2.4959,0,0.000885,0,0
0:0:46.149,24.87,2.48901,0,0.000885,0,0
0:0:46.462,24.7499,2.47522,0,0.000885,0,0
0:0:46.765,24.9857,2.4959,0,0.000885,0,0
0:0:47.070,25.1591,2.51659,0,0.000885,0,0
0:0:47.369,25.2214,2.52348,0,0.000885,0,0
0:0:47.667,25.2792,2.53038,0,0.000885,0,0
0:0:47.968,25.3371,2.53038,0,0.000885,0,0
0:0:48.262,25.2792,2.53038,0,0.000885,0,0
0:0:48.566,25.1013,2.50969,0,0.000885,0,0
0:0:48.867,25.2792,2.53038,0,0.000885,0,0
0:0:49.164,25.3949,2.53727,0,0.000885,0,0
0:0:49.464,25.515,2.55106,0,0.000885,0,0
0:0:49.762,25.515,2.55106,0,0.000885,0,0
0:0:50.057,25.3371,2.53038,0,0.000885,0,0
0:0:50.354,25.1013,2.50969,0,0.000885,0,0
0:0:50.664,25.4527,2.54417,0,0.000885,0,0
0:0:50.964,24.7499,2.47522,0,0.000885,0,0
0:0:51.268,25.1591,2.51659,0,0.000885,0,0
0:0:51.562,25.2792,2.53038,0,0.000885,0,0
0:0:51.863,24.6343,2.46143,0,0.000885,0,0
0:0:52.169,24.6343,2.46143,0,0.000885,0,0
0:0:52.468,25.0435,2.5028,0,0.000885,0,0
0:0:52.765,24.5764,2.45453,0,0.000885,0,0
0:0:53.066,24.6343,2.46143,0,0.000885,0,0
0:0:53.368,24.5141,2.45453,0,0.000885,0,0
0:0:53.664,24.5141,2.45453,0,0.000885,0,0
0:0:53.972,24.4563,2.44764,0,0.000885,0,0
0:0:54.270,23.9893,2.39938,0,0.000885,0,0
0:0:54.570,23.8113,2.37869,0,0.000885,0,0
0:0:54.869,24.0471,2.40627,0,0.000885,0,0
0:0:55.166,24.0471,2.40627,0,0.000885,0,0
0:0:55.464,23.9314,2.39248,0,0.000885,0,0
0:0:55.759,23.6378,2.3649,0,0.000885,0,0
0:0:56.058,23.6378,2.3649,0,0.000885,0,0
0:0:56.365,23.4021,2.33732,0,0.000885,0,0
0:0:56.670,23.1085,2.30974,0,0.000885,0,0
0:0:56.970,22.4635,2.24769,0,0.000885,0,0
0:0:57.267,22.1699,2.22011,0,0.000885,0,0
0:0:57.568,21.7029,2.17185,0,0.000885,0,0
0:0:57.864,21.5828,2.15806,0,0.000885,0,0
0:0:58.164,21.2892,2.13048,0,0.000885,0,0
0:0:58.468,21.2892,2.13048,0,0.000885,0,0
0:0:58.763,20.5864,2.06153,0,0.000885,0,0
0:0:59.071,20.4707,2.04774,0,0.000885,0,0
0:0:59.368,20.4084,2.04085,0,0.000885,0,0
0:0:59.669,20.4084,2.04085,0,0.000885,0,0
0:0:59.968,20.3506,2.03395,0,0.000885,0,0
0:1:0.265,20.3506,2.03395,0,0.000885,0,0
0:1:0.560,20.2928,2.02706,0,0.000885,0,0
0:1:0.858,20.057,2.00637,0,0.000885,0,0
0:1:1.169,20.4084,2.04085,0,0.000885,0,0
0:1:1.465,20.4707,2.04774,0,0.000885,0,0
0:1:1.766,20.4707,2.04774,0,0.000885,0,0
0:1:2.068,20.5285,2.05464,0,0.000885,0,0
0:1:2.364,20.2928,2.02706,0,0.000885,0,0
0:1:2.671,20.1193,2.01327,0,0.000885,0,0
0:1:2.969,19.8836,1.98569,0,0.000885,0,0
0:1:3.268,19.8836,1.98569,0,0.000885,0,0
0:1:3.563,19.7056,1.9719,0,0.000885,0,0
0:1:3.865,19.412,1.94432,0,0.000885,0,0
0:1:4.168,19.3542,1.93743,0,0.000885,0,0
0:1:4.460,19.3542,1.93743,0,0.000885,0,0
0:1:4.764,19.2964,1.93053,0,0.000885,0,0
0:1:5.058,18.8871,1.88916,0,0.000885,0,0
0:1:5.356,19.1185,1.90985,0,0.000885,0,0
0:1:5.665,18.8871,1.88916,0,0.000885,0,0
0:1:5.960,18.8249,1.88227,0,0.000885,0,0
0:1:6.155,18.6514,1.86848,0,0.000885,0,0