Folder: Experiment-Files (part 59)

File: DataFile2021-06-30_053558.csv
Test ID:,Date Tested:,Time:,Test Type:,Diameter Avg. (mm):,Cyl. Corr. Factor:,Height (mm):,Age (days):,Weight (kN):,Break Type:,Ramp Rate (MPa/s):,Load at Break (kN):,Stress at Break (MPa):
12,6/30/2021,05:35,Cylinder,150,1,300,0,3.6,3,0.25,1783.33,100.92
Sample Time,Load (kN),Stress (MPa),Long. Strain,Trans. Strain,Chan1 Deflection (mm),Chan2 Deflection (mm)
0:0:16.823,5.57362,0.317159,0,0.000885,0,0
0:0:18.513,12.9043,0.730844,0,0.000885,0,0
0:0:20.203,19.3542,1.09627,0,0.000885,0,0
0:0:21.894,28.9134,1.63406,0,0.000885,0,0
0:0:23.612,35.8927,2.03395,0,0.000885,0,0
0:0:25.307,42.8141,2.42006,0,0.000885,0,0
0:0:26.999,50.2649,2.84753,0,0.000885,0,0
0:0:28.720,57.8313,3.27501,0,0.000885,0,0
0:0:30.411,65.4556,3.70248,0,0.000885,0,0
0:0:32.105,73.1955,4.14375,0,0.000885,0,0
0:0:33.823,81.1133,4.59191,0,0.000885,0,0
0:0:35.513,88.6797,5.01938,0,0.000885,0,0
0:0:37.207,95.8369,5.42617,0,0.000885,0,0
0:0:38.925,103.813,5.87433,0,0.000885,0,0
0:0:40.618,110.734,6.26733,0,0.000885,0,0
0:0:42.312,118.71,6.71549,0,0.000885,0,0
0:0:44.030,125.511,7.1016,0,0.000885,0,0
0:0:45.720,133.843,7.57044,0,0.000885,0,0
0:0:47.423,140.586,7.95655,0,0.000885,0,0
0:0:49.132,148.446,8.39781,0,0.000885,0,0
0:0:50.821,155.363,8.79082,0,0.000885,0,0
0:0:52.521,163.281,9.23897,0,0.000885,0,0
0:0:54.231,171.141,9.68713,0,0.000885,0,0
0:0:55.923,178.182,10.0801,0,0.000885,0,0
0:0:57.622,185.98,10.5214,0,0.000885,0,0
0:0:59.330,192.786,10.9075,0,0.000885,0,0
0:1:1.013,201.171,11.3832,0,0.000885,0,0
0:1:2.708,208.444,11.7969,0,0.000885,0,0
0:1:4.395,215.717,12.2037,0,0.000885,0,0
0:1:6.076,223.105,12.6243,0,0.000885,0,0
0:1:7.781,230.849,13.0656,0,0.000885,0,0
0:1:9.480,238.238,13.4793,0,0.000885,0,0
0:1:11.172,245.626,13.8998,0,0.000885,0,0
0:1:12.874,252.726,14.2997,0,0.000885,0,0
0:1:14.574,260.817,14.7617,0,0.000885,0,0
0:1:16.263,267.738,15.1478,0,0.000885,0,0
0:1:17.974,275.363,15.5822,0,0.000885,0,0
0:1:19.657,283.165,16.0234,0,0.000885,0,0
0:1:21.336,290.553,16.444,0,0.000885,0,0
0:1:23.038,298.413,16.8853,0,0.000885,0,0
0:1:24.724,305.277,17.2783,0,0.000885,0,0
0:1:26.403,312.843,17.7057,0,0.000885,0,0
0:1:28.102,320.29,18.1263,0,0.000885,0,0
0:1:29.791,328.034,18.5607,0,0.000885,0,0
0:1:31.478,335.538,18.9882,0,0.000885,0,0
0:1:33.183,342.695,19.395,0,0.000885,0,0
0:1:34.876,350.493,19.8362,0,0.000885,0,0
0:1:36.574,358.705,20.2982,0,0.000885,0,0
0:1:38.288,365.453,20.6774,0,0.000885,0,0
0:1:39.981,372.957,21.1049,0,0.000885,0,0
0:1:41.680,380.056,21.5047,0,0.000885,0,0
0:1:43.380,388.499,21.9874,0,0.000885,0,0
0:1:45.083,395.95,22.408,0,0.000885,0,0
0:1:46.785,403.165,22.8148,0,0.000885,0,0
0:1:48.485,410.669,23.2422,0,0.000885,0,0
0:1:50.176,418.004,23.6559,0,0.000885,0,0
0:1:51.880,425.392,24.0696,0,0.000885,0,0
0:1:53.580,433.252,24.5178,0,0.000885,0,0
0:1:55.282,440.583,24.9314,0,0.000885,0,0
0:1:56.982,447.678,25.3313,0,0.000885,0,0
0:1:58.685,455.774,25.7933,0,0.000885,0,0
0:2:0.378,463.282,26.2139,0,0.000885,0,0
0:2:2.080,470.493,26.6276,0,0.000885,0,0
0:2:3.780,478.179,27.0619,0,0.000885,0,0
0:2:5.484,485.568,27.4756,0,0.000885,0,0
0:2:7.187,493.192,27.91,0,0.000885,0,0
0:2:8.888,500.171,28.303,0,0.000885,0,0
0:2:10.580,508.089,28.7511,0,0.000885,0,0
0:2:12.285,516.301,29.22,0,0.000885,0,0
0:2:13.986,523.164,29.6061,0,0.000885,0,0
0:2:15.676,530.962,30.0474,0,0.000885,0,0
0:2:17.380,538.355,30.4679,0,0.000885,0,0
0:2:19.079,545.334,30.8609,0,0.000885,0,0
0:2:20.782,553.603,31.3298,0,0.000885,0,0
0:2:22.488,561.17,31.7573,0,0.000885,0,0
0:2:24.187,568.087,32.1503,0,0.000885,0,0
0:2:25.889,575.48,32.5639,0,0.000885,0,0
0:2:27.591,583.34,33.0121,0,0.000885,0,0
0:2:29.282,590.141,33.3982,0,0.000885,0,0
0:2:30.989,598.241,33.8533,0,0.000885,0,0
0:2:32.689,606.284,34.3083,0,0.000885,0,0
0:2:34.390,613.152,34.6944,0,0.000885,0,0
0:2:36.086,620.607,35.1219,0,0.000885,0,0
0:2:37.786,628.649,35.5769,0,0.000885,0,0
0:2:39.487,635.397,35.9562,0,0.000885,0,0
0:2:41.181,642.443,36.3561,0,0.000885,0,0
0:2:42.900,651.482,36.8663,0,0.000885,0,0
0:2:44.595,658.586,37.2662,0,0.000885,0,0
0:2:46.289,665.863,37.6798,0,0.000885,0,0
0:2:47.995,673.848,38.1349,0,0.000885,0,0
0:2:49.693,680.831,38.5279,0,0.000885,0,0
0:2:51.389,688.344,38.9554,0,0.000885,0,0
0:2:53.096,695.333,39.3484,0,0.000885,0,0
0:2:54.792,703.491,39.8103,0,0.000885,0,0
0:2:56.488,710.532,40.2102,0,0.000885,0,0
0:2:58.195,718.753,40.6722,0,0.000885,0,0
0:2:59.892,726.266,41.0996,0,0.000885,0,0
0:3:1.586,733.249,41.4926,0,0.000885,0,0
0:3:3.301,740.82,41.9201,0,0.000885,0,0
0:3:4.990,747.924,42.3269,0,0.000885,0,0
0:3:6.686,755.851,42.7751,0,0.000885,0,0
0:3:8.401,763.831,43.2232,0,0.000885,0,0
0:3:10.087,770.992,43.63,0,0.000885,0,0
0:3:11.793,778.568,44.0575,0,0.000885,0,0
0:3:13.508,785.436,44.4436,0,0.000885,0,0
0:3:15.195,793.594,44.9056,0,0.000885,0,0
0:3:16.893,800.871,45.3192,0,0.000885,0,0
0:3:18.609,808.091,45.726,0,0.000885,0,0
0:3:20.294,816.311,46.1949,0,0.000885,0,0
0:3:21.989,823.295,46.5879,0,0.000885,0,0
0:3:23.704,831.453,47.0498,0,0.000885,0,0
0:3:25.391,837.969,47.4221,0,0.000885,0,0
0:3:27.083,846.247,47.891,0,0.000885,0,0
0:3:28.791,853.583,48.3047,0,0.000885,0,0
0:3:30.487,861.096,48.7252,0,0.000885,0,0
0:3:32.199,867.67,49.0976,0,0.000885,0,0
0:3:33.905,876.829,49.6216,0,0.000885,0,0
0:3:35.595,883.403,49.987,0,0.000885,0,0
0:3:37.295,891.032,50.4214,0,0.000885,0,0
0:3:39.001,898.665,50.8557,0,0.000885,0,0
0:3:40.690,905.827,51.2625,0,0.000885,0,0
0:3:42.390,913.869,51.7176,0,0.000885,0,0
0:3:44.095,920.675,52.0968,0,0.000885,0,0
0:3:45.795,929.131,52.5794,0,0.000885,0,0
0:3:47.496,936.524,52.9931,0,0.000885,0,0
0:3:49.192,944.215,53.4344,0,0.000885,0,0
0:3:50.891,950.905,53.8136,0,0.000885,0,0
0:3:52.602,958.774,54.2548,0,0.000885,0,0
0:3:54.300,965.873,54.6547,0,0.000885,0,0
0:3:55.996,973.271,55.0753,0,0.000885,0,0
0:3:57.696,981.198,55.5235,0,0.000885,0,0
0:3:59.398,989.12,55.9716,0,0.000885,0,0
0:4:1.093,995.988,56.3646,0,0.000885,0,0
0:4:2.802,1003.79,56.8059,0,0.000885,0,0
0:4:4.495,1011.37,57.2334,0,0.000885,0,0
0:4:6.187,1019.11,57.6677,0,0.000885,0,0
0:4:7.909,1025.98,58.0608,0,0.000885,0,0
0:4:9.604,1034.32,58.5296,0,0.000885,0,0
0:4:11.288,1040.6,58.8881,0,0.000885,0,0
0:4:12.995,1048.88,59.357,0,0.000885,0,0
0:4:14.694,1056.74,59.7982,0,0.000885,0,0
0:4:16.386,1063.67,60.1912,0,0.000885,0,0
0:4:18.101,1071.07,60.6118,0,0.000885,0,0
0:4:19.798,1079.28,61.0738,0,0.000885,0,0
0:4:21.483,1086.21,61.4668,0,0.000885,0,0
0:4:23.196,1092.9,61.846,0,0.000885,0,0
0:4:24.894,1101.59,62.3355,0,0.000885,0,0
0:4:26.593,1109.28,62.7699,0,0.000885,0,0
0:4:28.302,1116.26,63.1698,0,0.000885,0,0
0:4:29.994,1124.01,63.6041,0,0.000885,0,0
0:4:31.688,1131.23,64.0178,0,0.000885,0,0
0:4:33.408,1139.04,64.4591,0,0.000885,0,0
0:4:35.100,1146.14,64.859,0,0.000885,0,0
0:4:36.796,1153.95,65.3002,0,0.000885,0,0
0:4:38.506,1161.87,65.7484,0,0.000885,0,0
0:4:40.195,1169.15,66.1621,0,0.000885,0,0
0:4:41.890,1176.9,66.5965,0,0.000885,0,0
0:4:43.602,1183.82,66.9895,0,0.000885,0,0
0:4:45.295,1191.57,67.4307,0,0.000885,0,0
0:4:46.998,1198.91,67.8444,0,0.000885,0,0
0:4:48.710,1206.78,68.2926,0,0.000885,0,0
0:4:50.400,1214.41,68.72,0,0.000885,0,0
0:4:52.101,1221.69,69.1337,0,0.000885,0,0
0:4:53.810,1229.02,69.5474,0,0.000885,0,0
0:4:55.498,1236.77,69.9887,0,0.000885,0,0
0:4:57.198,1244.28,70.4093,0,0.000885,0,0
0:4:58.904,1250.98,70.7885,0,0.000885,0,0
0:5:0.597,1258.78,71.2297,0,0.000885,0,0
0:5:2.282,1266.18,71.6503,0,0.000885,0,0
0:5:3.991,1274.46,72.1192,0,0.000885,0,0
0:5:5.691,1281.44,72.5122,0,0.000885,0,0
0:5:7.390,1289.31,72.9603,0,0.000885,0,0
0:5:9.098,1296.88,73.3878,0,0.000885,0,0
0:5:10.799,1304.22,73.8015,0,0.000885,0,0
0:5:12.509,1312.2,74.2565,0,0.000885,0,0
0:5:14.207,1319.19,74.6495,0,0.000885,0,0
0:5:15.892,1326.58,75.0701,0,0.000885,0,0
0:5:17.614,1334.45,75.5114,0,0.000885,0,0
0:5:19.315,1341.55,75.9182,0,0.000885,0,0
0:5:21.002,1349,76.3388,0,0.000885,0,0
0:5:22.711,1356.81,76.78,0,0.000885,0,0
0:5:24.412,1364.27,77.2006,0,0.000885,0,0
0:5:26.100,1371.66,77.6212,0,0.000885,0,0
0:5:27.810,1379.12,78.0418,0,0.000885,0,0
0:5:29.512,1387.1,78.4968,0,0.000885,0,0
0:5:31.199,1394.14,78.8898,0,0.000885,0,0
0:5:32.907,1402.07,79.338,0,0.000885,0,0
0:5:34.600,1408.76,79.7172,0,0.000885,0,0
0:5:36.296,1416.68,80.1653,0,0.000885,0,0
0:5:38.006,1424.55,80.6135,0,0.000885,0,0
0:5:39.697,1431.48,81.0065,0,0.000885,0,0
0:5:41.394,1439.93,81.4822,0,0.000885,0,0
0:5:43.104,1446.91,81.8752,0,0.000885,0,0
0:5:44.807,1454.19,82.2889,0,0.000885,0,0
0:5:46.504,1461.47,82.7026,0,0.000885,0,0
0:5:48.214,1469.1,83.137,0,0.000885,0,0
0:5:49.904,1476.26,83.5369,0,0.000885,0,0
0:5:51.594,1484.67,84.0126,0,0.000885,0,0
0:5:53.312,1492.27,84.447,0,0.000885,0,0
0:5:54.999,1499.75,84.8676,0,0.000885,0,0
0:5:56.702,1506.93,85.2744,0,0.000885,0,0
0:5:58.408,1514.53,85.7018,0,0.000885,0,0
0:6:0.096,1522.01,86.1293,0,0.000885,0,0
0:6:1.807,1529.07,86.5292,0,0.000885,0,0
0:6:3.518,1537.02,86.9774,0,0.000885,0,0
0:6:5.206,1545.15,87.4393,0,0.000885,0,0
0:6:6.900,1551.62,87.8047,0,0.000885,0,0
0:6:8.618,1559.57,88.2529,0,0.000885,0,0
0:6:10.304,1566.7,88.6597,0,0.000885,0,0
0:6:11.996,1574.53,89.1009,0,0.000885,0,0
0:6:13.713,1582.25,89.5353,0,0.000885,0,0
0:6:15.400,1589.49,89.949,0,0.000885,0,0
0:6:17.094,1597.67,90.411,0,0.000885,0,0
0:6:18.799,1604.15,90.7764,0,0.000885,0,0
0:6:20.510,1611.68,91.2038,0,0.000885,0,0
0:6:22.208,1620.46,91.7003,0,0.000885,0,0
0:6:23.915,1626.99,92.0657,0,0.000885,0,0
0:6:25.614,1634.53,92.4932,0,0.000885,0,0
0:6:27.298,1641.83,92.9069,0,0.000885,0,0
0:6:29.006,1648.43,93.2792,0,0.000885,0,0
0:6:30.707,1657.02,93.7687,0,0.000885,0,0
0:6:32.392,1664.62,94.1962,0,0.000885,0,0
0:6:34.100,1671.45,94.5823,0,0.000885,0,0
0:6:35.797,1678.93,95.0098,0,0.000885,0,0
0:6:37.496,1687.35,95.4855,0,0.000885,0,0
0:6:39.196,1695.3,95.9337,0,0.000885,0,0
0:6:40.892,1702.42,96.3404,0,0.000885,0,0
0:6:42.602,1709.9,96.761,0,0.000885,0,0
0:6:44.301,1718.26,97.2368,0,0.000885,0,0
0:6:46.007,1724.8,97.6022,0,0.000885,0,0
0:6:47.703,1732.52,98.0434,0,0.000885,0,0
0:6:49.407,1739.05,98.4089,0,0.000885,0,0
0:6:51.111,1747.53,98.8915,0,0.000885,0,0
0:6:52.819,1754.95,99.3121,0,0.000885,0,0
0:6:54.512,1760.78,99.643,0,0.000885,0,0
0:6:56.195,1770.97,100.215,0,0.000885,0,0
0:6:57.905,1777.74,100.601,0,0.000885,0,0
0:6:59.604,1728.74,97.8297,0,0.000885,0,0
0:7:1.293,1259.78,71.2918,0,0.000885,0,0
0:7:1.582,1250.86,70.7816,0,0.000885,0,0

File: DataFile2021-06-30_054557.csv
Test ID:,Date Tested:,Time:,Test Type:,Diameter Avg. (mm):,Cyl. Corr. Factor:,Height (mm):,Age (days):,Weight (kN):,Break Type:,Ramp Rate (MPa/s):,Load at Break (kN):,Stress at Break (MPa):
12,6/30/2021,05:45,Cylinder,150,1,300,0,3.6,3,0.25,1410.99,79.85
Sample Time,Load (kN),Stress (MPa),Long. Strain,Trans. Strain,Chan1 Deflection (mm),Chan2 Deflection (mm)
0:0:23.413,5.7471,0.324054,0,0.000885,0,0
0:0:24.806,11.4364,0.648107,0,0.000885,0,0
0:0:26.194,16.8321,0.951477,0,0.000885,0,0
0:0:27.586,22.7571,1.28932,0,0.000885,0,0
0:0:28.985,31.0263,1.75816,0,0.000885,0,0
0:0:30.402,37.245,2.1098,0,0.000885,0,0
0:0:31.794,41.9957,2.37869,0,0.000885,0,0
0:0:33.189,48.152,2.72343,0,0.000885,0,0
0:0:34.603,54.4863,3.08196,0,0.000885,0,0
0:0:36.004,61.2298,3.46806,0,0.000885,0,0
0:0:37.395,66.6877,3.77143,0,0.000885,0,0
0:0:38.796,73.1955,4.14375,0,0.000885,0,0
0:0:40.211,80.0013,4.52986,0,0.000885,0,0
0:0:41.605,86.042,4.8677,0,0.000885,0,0
0:0:42.996,92.1405,5.21244,0,0.000885,0,0
0:0:44.406,97.7096,5.5296,0,0.000885,0,0
0:0:45.814,104.106,5.88812,0,0.000885,0,0
0:0:47.208,110.027,6.22597,0,0.000885,0,0
0:0:48.601,116.833,6.61207,0,0.000885,0,0
0:0:50.014,122.58,6.93613,0,0.000885,0,0
0:0:51.416,128.914,7.29465,0,0.000885,0,0
0:0:52.810,134.719,7.6256,0,0.000885,0,0
0:0:54.212,141.992,8.03239,0,0.000885,0,0
0:0:55.620,147.975,8.37024,0,0.000885,0,0
0:0:57.017,153.312,8.6736,0,0.000885,0,0
0:0:58.412,160.056,9.05971,0,0.000885,0,0
0:0:59.822,165.394,9.35619,0,0.000885,0,0
0:1:1.224,172.022,9.7354,0,0.000885,0,0
0:1:2.617,178.472,10.1008,0,0.000885,0,0
0:1:4.011,184.161,10.4249,0,0.000885,0,0
0:1:5.428,192.786,10.9075,0,0.000885,0,0
0:1:6.813,198.764,11.2453,0,0.000885,0,0
0:1:8.199,203.399,11.5073,0,0.000885,0,0
0:1:9.600,209.031,11.8314,0,0.000885,0,0
0:1:10.988,215.832,12.2106,0,0.000885,0,0
0:1:12.375,221.815,12.5554,0,0.000885,0,0
0:1:13.758,227.682,12.8863,0,0.000885,0,0
0:1:15.165,234.484,13.2724,0,0.000885,0,0
0:1:16.557,239.937,13.5758,0,0.000885,0,0
0:1:17.956,246.214,13.9343,0,0.000885,0,0
0:1:19.367,253.077,14.3204,0,0.000885,0,0
0:1:20.764,258.709,14.6376,0,0.000885,0,0
0:1:22.147,264.571,14.9685,0,0.000885,0,0
0:1:23.540,270.612,15.3133,0,0.000885,0,0
0:1:24.948,277.476,15.6994,0,0.000885,0,0
0:1:26.350,283.574,16.0441,0,0.000885,0,0
0:1:27.737,289.793,16.3957,0,0.000885,0,0
0:1:29.131,294.953,16.6922,0,0.000885,0,0
0:1:30.529,301.229,17.0438,0,0.000885,0,0
0:1:31.914,307.621,17.4093,0,0.000885,0,0
0:1:33.298,314.658,17.8092,0,0.000885,0,0
0:1:34.696,320.054,18.1125,0,0.000885,0,0
0:1:36.087,325.921,18.4435,0,0.000885,0,0
0:1:37.474,333.43,18.871,0,0.000885,0,0
0:1:38.865,338.59,19.1605,0,0.000885,0,0
0:1:40.263,344.573,19.4984,0,0.000885,0,0
0:1:41.660,350.671,19.8431,0,0.000885,0,0
0:1:43.062,357.477,20.2292,0,0.000885,0,0
0:1:44.463,363.282,20.5602,0,0.000885,0,0
0:1:45.864,369.79,20.9256,0,0.000885,0,0
0:1:47.247,375.95,21.2772,0,0.000885,0,0
0:1:48.628,380.937,21.5599,0,0.000885,0,0
0:1:50.037,387.738,21.9391,0,0.000885,0,0
0:1:51.423,393.957,22.2908,0,0.000885,0,0
0:1:52.803,400.585,22.67,0,0.000885,0,0
0:1:54.205,406.799,23.0216,0,0.000885,0,0
0:1:55.598,413.133,23.3801,0,0.000885,0,0
0:1:56.981,418.177,23.6628,0,0.000885,0,0
0:1:58.363,424.805,24.042,0,0.000885,0,0
0:1:59.771,430.966,24.3868,0,0.000885,0,0
0:2:1.160,436.887,24.7246,0,0.000885,0,0
0:2:2.550,443.75,25.1107,0,0.000885,0,0
0:2:3.948,448.737,25.3934,0,0.000885,0,0
0:2:5.347,455.538,25.7795,0,0.000885,0,0
0:2:6.760,462.224,26.1587,0,0.000885,0,0
0:2:8.161,467.619,26.4621,0,0.000885,0,0
0:2:9.568,474.305,26.8413,0,0.000885,0,0
0:2:10.966,480.933,27.2136,0,0.000885,0,0
0:2:12.357,485.861,27.4963,0,0.000885,0,0
0:2:13.760,492.489,27.8686,0,0.000885,0,0
0:2:15.157,498.766,28.2271,0,0.000885,0,0
0:2:16.551,505.216,28.5926,0,0.000885,0,0
0:2:17.965,511.314,28.9373,0,0.000885,0,0
0:2:19.362,517.533,29.2889,0,0.000885,0,0
0:2:20.764,523.867,29.6475,0,0.000885,0,0
0:2:22.157,529.908,29.9853,0,0.000885,0,0
0:2:23.541,535.303,30.2887,0,0.000885,0,0
0:2:24.946,542.105,30.6748,0,0.000885,0,0
0:2:26.357,548.266,31.0264,0,0.000885,0,0
0:2:27.764,554.364,31.3711,0,0.000885,0,0
0:2:29.154,560.525,31.7159,0,0.000885,0,0
0:2:30.553,566.623,32.0675,0,0.000885,0,0
0:2:31.954,573.073,32.426,0,0.000885,0,0
0:2:33.340,580.173,32.8328,0,0.000885,0,0
0:2:34.743,585.506,33.1362,0,0.000885,0,0
0:2:36.136,591.022,33.4465,0,0.000885,0,0
0:2:37.526,597.303,33.7981,0,0.000885,0,0
0:2:38.932,604.055,34.1842,0,0.000885,0,0
0:2:40.335,610.1,34.522,0,0.000885,0,0
0:2:41.721,616.088,34.8668,0,0.000885,0,0
0:2:43.113,622.662,35.2322,0,0.000885,0,0
0:2:44.524,628.707,35.5769,0,0.000885,0,0
0:2:45.921,635.339,35.9562,0,0.000885,0,0
0:2:47.310,640.918,36.2664,0,0.000885,0,0
0:2:48.708,647.198,36.625,0,0.000885,0,0
0:2:50.120,652.777,36.9421,0,0.000885,0,0
0:2:51.506,659.351,37.3144,0,0.000885,0,0
0:2:52.899,665.632,37.6661,0,0.000885,0,0
0:2:54.303,672.144,38.0384,0,0.000885,0,0
0:2:55.707,678.194,38.3762,0,0.000885,0,0
0:2:57.097,683.652,38.6865,0,0.000885,0,0
0:2:58.492,689.519,39.0174,0,0.000885,0,0
0:2:59.906,696.093,39.3897,0,0.000885,0,0
0:3:1.293,702.668,39.7621,0,0.000885,0,0
0:3:2.683,708.597,40.0999,0,0.000885,0,0
0:3:4.089,714.82,40.4515,0,0.000885,0,0
0:3:5.492,721.631,40.8376,0,0.000885,0,0
0:3:6.879,727.204,41.1548,0,0.000885,0,0
0:3:8.270,733.721,41.5202,0,0.000885,0,0
0:3:9.680,739.708,41.8581,0,0.000885,0,0
0:3:11.077,746.167,42.2235,0,0.000885,0,0
0:3:12.464,752.448,42.582,0,0.000885,0,0
0:3:13.873,758.373,42.913,0,0.000885,0,0
0:3:15.279,765.067,43.2922,0,0.000885,0,0
0:3:16.668,770.877,43.6231,0,0.000885,0,0
0:3:18.067,776.571,43.9472,0,0.000885,0,0
0:3:19.481,783.087,44.3126,0,0.000885,0,0
0:3:20.878,788.665,44.6298,0,0.000885,0,0
0:3:22.263,795.004,44.9883,0,0.000885,0,0
0:3:23.660,801.636,45.3606,0,0.000885,0,0
0:3:25.069,807.566,45.6985,0,0.000885,0,0
0:3:26.460,813.553,46.0363,0,0.000885,0,0
0:3:27.852,819.95,46.4017,0,0.000885,0,0
0:3:29.258,825.995,46.7396,0,0.000885,0,0
0:3:30.666,832.044,47.0843,0,0.000885,0,0
0:3:32.060,838.089,47.429,0,0.000885,0,0
0:3:33.470,844.78,47.8014,0,0.000885,0,0
0:3:34.884,851.06,48.1599,0,0.000885,0,0
0:3:36.276,857.048,48.4977,0,0.000885,0,0
0:3:37.669,863.271,48.8494,0,0.000885,0,0
0:3:39.066,869.374,49.1941,0,0.000885,0,0
0:3:40.474,875.833,49.5595,0,0.000885,0,0
0:3:41.873,881.878,49.9043,0,0.000885,0,0
0:3:43.263,887.981,50.249,0,0.000885,0,0
0:3:44.677,894.324,50.6075,0,0.000885,0,0
0:3:46.062,900.836,50.9798,0,0.000885,0,0
0:3:47.453,905.769,51.2556,0,0.000885,0,0
0:3:48.856,913.046,51.6693,0,0.000885,0,0
0:3:50.268,919.092,52.0072,0,0.000885,0,0
0:3:51.665,925.079,52.3519,0,0.000885,0,0
0:3:53.058,931.947,52.738,0,0.000885,0,0
0:3:54.463,937.583,53.0552,0,0.000885,0,0
0:3:55.879,943.922,53.4137,0,0.000885,0,0
0:3:57.267,949.678,53.7377,0,0.000885,0,0
0:3:58.672,956.483,54.1238,0,0.000885,0,0
0:4:0.086,962.061,54.441,0,0.000885,0,0
0:4:1.473,968.809,54.8202,0,0.000885,0,0
0:4:2.876,974.797,55.165,0,0.000885,0,0
0:4:4.284,981.02,55.5166,0,0.000885,0,0
0:4:5.679,987.358,55.8751,0,0.000885,0,0
0:4:7.068,992.349,56.1578,0,0.000885,0,0
0:4:8.461,999.511,56.5577,0,0.000885,0,0
0:4:9.874,1005.91,56.9231,0,0.000885,0,0
0:4:11.260,1011.6,57.2472,0,0.000885,0,0
0:4:12.682,1018.24,57.6195,0,0.000885,0,0
0:4:14.083,1024.4,57.9711,0,0.000885,0,0
0:4:15.486,1030.97,58.3434,0,0.000885,0,0
0:4:16.875,1036.67,58.6606,0,0.000885,0,0
0:4:18.280,1042.54,58.9984,0,0.000885,0,0
0:4:19.696,1049.7,59.3983,0,0.000885,0,0
0:4:21.083,1055.1,59.7086,0,0.000885,0,0
0:4:22.474,1061.38,60.0602,0,0.000885,0,0
0:4:23.887,1067.31,60.3981,0,0.000885,0,0
0:4:25.291,1074.59,60.8118,0,0.000885,0,0
0:4:26.679,1080.22,61.1289,0,0.000885,0,0
0:4:28.082,1086.38,61.4737,0,0.000885,0,0
0:4:29.491,1092.43,61.8184,0,0.000885,0,0
0:4:30.885,1098.24,62.1493,0,0.000885,0,0
0:4:32.274,1104.23,62.4872,0,0.000885,0,0
0:4:33.678,1110.92,62.8664,0,0.000885,0,0
0:4:35.091,1117.5,63.2387,0,0.000885,0,0
0:4:36.478,1123.78,63.5903,0,0.000885,0,0
0:4:37.880,1129.53,63.9213,0,0.000885,0,0
0:4:39.288,1135.52,64.2591,0,0.000885,0,0
0:4:40.682,1142.09,64.6315,0,0.000885,0,0
0:4:42.081,1147.37,64.9279,0,0.000885,0,0
0:4:43.486,1154.3,65.3209,0,0.000885,0,0
0:4:44.898,1160.47,65.6657,0,0.000885,0,0
0:4:46.287,1166.33,66.0035,0,0.000885,0,0
0:4:47.679,1172.61,66.3551,0,0.000885,0,0
0:4:49.091,1179.25,66.7344,0,0.000885,0,0
0:4:50.493,1185.12,67.0653,0,0.000885,0,0
0:4:51.883,1191.28,67.41,0,0.000885,0,0
0:4:53.285,1197.03,67.741,0,0.000885,0,0
0:4:54.693,1203.84,68.1202,0,0.000885,0,0
0:4:56.090,1210.13,68.4787,0,0.000885,0,0
0:4:57.478,1215.7,68.7959,0,0.000885,0,0
0:4:58.895,1222.98,69.2096,0,0.000885,0,0
0:5:0.298,1228.61,69.5267,0,0.000885,0,0
0:5:1.686,1234.01,69.8301,0,0.000885,0,0
0:5:3.083,1241.06,70.23,0,0.000885,0,0
0:5:4.495,1247.22,70.5816,0,0.000885,0,0
0:5:5.891,1252.8,70.8919,0,0.000885,0,0
0:5:7.281,1259.31,71.2642,0,0.000885,0,0
0:5:8.689,1266.36,71.6641,0,0.000885,0,0
0:5:10.097,1271.05,71.9261,0,0.000885,0,0
0:5:11.490,1277.86,72.3122,0,0.000885,0,0
0:5:12.888,1284.32,72.6776,0,0.000885,0,0
0:5:14.297,1290.25,73.0155,0,0.000885,0,0
0:5:15.693,1296.71,73.3809,0,0.000885,0,0
0:5:17.086,1302.87,73.7256,0,0.000885,0,0
0:5:18.486,1308.09,74.0221,0,0.000885,0,0
0:5:19.899,1314.55,74.3875,0,0.000885,0,0
0:5:21.289,1321.06,74.7599,0,0.000885,0,0
0:5:22.683,1327.7,75.1322,0,0.000885,0,0
0:5:24.088,1333.57,75.4631,0,0.000885,0,0
0:5:25.493,1339.61,75.8079,0,0.000885,0,0
0:5:26.887,1346.25,76.1802,0,0.000885,0,0
0:5:28.286,1351.71,76.4904,0,0.000885,0,0
0:5:29.699,1356.99,76.7869,0,0.000885,0,0
0:5:31.091,1362.51,77.1041,0,0.000885,0,0
0:5:32.482,1370.72,77.566,0,0.000885,0,0
0:5:33.890,1377.18,77.9314,0,0.000885,0,0
0:5:35.295,1383.87,78.3107,0,0.000885,0,0
0:5:36.689,1388.8,78.5933,0,0.000885,0,0
0:5:38.090,1394.32,78.9036,0,0.000885,0,0
0:5:39.495,1400.54,79.2552,0,0.000885,0,0
0:5:40.892,1408.17,79.6896,0,0.000885,0,0
0:5:42.282,1405.36,79.5241,0,0.000885,0,0
0:5:43.694,1247.57,70.5954,0,0.000885,0,0
0:5:45.093,1247.87,70.6161,0,0.000885,0,0
0:5:46.490,1259.08,71.2504,0,0.000885,0,0
0:5:47.887,1257.37,71.1539,0,0.000885,0,0
0:5:47.974,1257.37,71.1539,0,0.000885,0,0