Folder: Experiment-Files (part 62)

File: DataFile2021-06-30_064949.csv
Test ID:,Date Tested:,Time:,Test Type:,Diameter Avg. (mm):,Cyl. Corr. Factor:,Height (mm):,Age (days):,Weight (kN):,Break Type:,Ramp Rate (MPa/s):,Load at Break (kN):,Stress at Break (MPa):
12,6/30/2021,06:49,Cylinder,100,1,200,0,3.6,3,0.25,1104.4,140.62
Sample Time,Load (kN),Stress (MPa),Long. Strain,Trans. Strain,Chan1 Deflection (mm),Chan2 Deflection (mm)
0:0:19.810,5.92503,0.751529,0,0.000885,0,0
0:0:22.195,9.44357,1.19969,0,0.000885,0,0
0:0:24.577,13.7228,1.74437,0,0.000885,0,0
0:0:26.991,19.2386,2.44764,0,0.000885,0,0
0:0:29.381,24.6921,3.14401,0,0.000885,0,0
0:0:31.795,28.6821,3.65422,0,0.000885,0,0
0:0:34.184,33.8999,4.31612,0,0.000885,0,0
0:0:36.597,37.89,4.82633,0,0.000885,0,0
0:0:38.983,42.5784,5.41928,0,0.000885,0,0
0:0:41.394,47.9162,6.10186,0,0.000885,0,0
0:0:43.785,51.9641,6.61897,0,0.000885,0,0
0:0:46.190,56.5369,7.19813,0,0.000885,0,0
0:0:48.585,61.937,7.8876,0,0.000885,0,0
0:0:50.993,66.3319,8.44608,0,0.000885,0,0
0:0:53.383,70.789,9.01145,0,0.000885,0,0
0:0:55.787,76.069,9.68713,0,0.000885,0,0
0:0:58.186,80.5262,10.2525,0,0.000885,0,0
0:1:0.592,85.0411,10.8248,0,0.000885,0,0
0:1:2.995,89.6761,11.4177,0,0.000885,0,0
0:1:5.385,94.8361,12.0727,0,0.000885,0,0
0:1:7.795,99.5868,12.6795,0,0.000885,0,0
0:1:10.191,103.813,13.2172,0,0.000885,0,0
0:1:12.597,108.563,13.824,0,0.000885,0,0
0:1:14.985,113.608,14.4652,0,0.000885,0,0
0:1:17.399,118.416,15.0788,0,0.000885,0,0
0:1:19.784,122.58,15.6097,0,0.000885,0,0
0:1:22.200,127.508,16.2372,0,0.000885,0,0
0:1:24.586,132.61,16.8853,0,0.000885,0,0
0:1:26.996,136.654,17.4024,0,0.000885,0,0
0:1:29.386,141.698,18.0436,0,0.000885,0,0
0:1:31.799,146.569,18.6641,0,0.000885,0,0
0:1:34.183,151.32,19.264,0,0.000885,0,0
0:1:36.602,155.657,19.8224,0,0.000885,0,0
0:1:38.991,160.821,20.4774,0,0.000885,0,0
0:1:41.402,165.336,21.0497,0,0.000885,0,0
0:1:43.788,170.087,21.6564,0,0.000885,0,0
0:1:46.197,174.895,22.2701,0,0.000885,0,0
0:1:48.587,179.237,22.8216,0,0.000885,0,0
0:1:50.999,183.987,23.4284,0,0.000885,0,0
0:1:53.398,188.618,24.0144,0,0.000885,0,0
0:1:55.796,193.782,24.6763,0,0.000885,0,0
0:1:58.186,197.83,25.1865,0,0.000885,0,0
0:2:0.594,203.164,25.8691,0,0.000885,0,0
0:2:2.984,207.977,26.4828,0,0.000885,0,0
0:2:5.389,212.256,27.0274,0,0.000885,0,0
0:2:7.785,217.122,27.648,0,0.000885,0,0
0:2:10.186,222.287,28.303,0,0.000885,0,0
0:2:12.584,226.744,28.8683,0,0.000885,0,0
0:2:14.984,230.965,29.4061,0,0.000885,0,0
0:2:17.388,236.125,30.068,0,0.000885,0,0
0:2:19.788,240.466,30.6196,0,0.000885,0,0
0:2:22.192,245.804,31.2953,0,0.000885,0,0
0:2:24.589,250.026,31.8331,0,0.000885,0,0
0:2:26.997,255.364,32.5157,0,0.000885,0,0
0:2:29.386,259.821,33.081,0,0.000885,0,0
0:2:31.790,264.629,33.6947,0,0.000885,0,0
0:2:34.190,268.561,34.1911,0,0.000885,0,0
0:2:36.595,273.957,34.8806,0,0.000885,0,0
0:2:38.993,278.299,35.4322,0,0.000885,0,0
0:2:41.396,283.049,36.0389,0,0.000885,0,0
0:2:43.789,287.386,36.5905,0,0.000885,0,0
0:2:46.199,292.315,37.2179,0,0.000885,0,0
0:2:48.594,296.888,37.804,0,0.000885,0,0
0:2:51.001,301.932,38.4452,0,0.000885,0,0
0:2:53.392,306.509,39.0243,0,0.000885,0,0
0:2:55.787,310.966,39.5966,0,0.000885,0,0
0:2:58.192,316.304,40.2723,0,0.000885,0,0
0:3:0.596,320.699,40.8308,0,0.000885,0,0
0:3:2.983,325.218,41.4099,0,0.000885,0,0
0:3:5.390,330.085,42.0304,0,0.000885,0,0
0:3:7.789,334.893,42.6372,0,0.000885,0,0
0:3:10.185,339.822,43.2646,0,0.000885,0,0
0:3:12.598,344.043,43.8024,0,0.000885,0,0
0:3:14.989,349.381,44.485,0,0.000885,0,0
0:3:17.392,353.251,44.9745,0,0.000885,0,0
0:3:19.797,358.647,45.664,0,0.000885,0,0
0:3:22.195,363.162,46.2362,0,0.000885,0,0
0:3:24.595,368.206,46.8843,0,0.000885,0,0
0:3:26.996,372.196,47.3877,0,0.000885,0,0
0:3:29.397,377.062,48.0082,0,0.000885,0,0
0:3:31.801,381.755,48.608,0,0.000885,0,0
0:3:34.200,386.448,49.201,0,0.000885,0,0
0:3:36.602,391.377,49.8284,0,0.000885,0,0
0:3:38.997,396.185,50.442,0,0.000885,0,0
0:3:41.400,400.994,51.0557,0,0.000885,0,0
0:3:43.801,405.745,51.6624,0,0.000885,0,0
0:3:46.202,410.731,52.2967,0,0.000885,0,0
0:3:48.596,414.543,52.7794,0,0.000885,0,0
0:3:51.002,419.703,53.4413,0,0.000885,0,0
0:3:53.399,424.632,54.0687,0,0.000885,0,0
0:3:55.803,429.147,54.641,0,0.000885,0,0
0:3:58.191,433.31,55.1718,0,0.000885,0,0
0:4:0.600,438.528,55.8337,0,0.000885,0,0
0:4:2.997,443.279,56.4405,0,0.000885,0,0
0:4:5.399,448.385,57.0886,0,0.000885,0,0
0:4:7.799,452.607,57.6264,0,0.000885,0,0
0:4:10.201,457.473,58.2469,0,0.000885,0,0
0:4:12.601,462.753,58.9226,0,0.000885,0,0
0:4:15.006,466.974,59.4604,0,0.000885,0,0
0:4:17.401,471.374,60.0189,0,0.000885,0,0
0:4:19.802,476.124,60.6187,0,0.000885,0,0
0:4:22.202,480.759,61.2117,0,0.000885,0,0
0:4:24.601,486.035,61.8873,0,0.000885,0,0
0:4:27.005,490.141,62.4044,0,0.000885,0,0
0:4:29.391,494.954,63.0181,0,0.000885,0,0
0:4:31.799,500.229,63.6938,0,0.000885,0,0
0:4:34.207,504.161,64.1902,0,0.000885,0,0
0:4:36.610,509.321,64.8521,0,0.000885,0,0
0:4:39.001,513.894,65.4312,0,0.000885,0,0
0:4:41.407,518.471,66.0104,0,0.000885,0,0
0:4:43.800,523.222,66.6171,0,0.000885,0,0
0:4:46.212,528.146,67.2446,0,0.000885,0,0
0:4:48.597,533.075,67.872,0,0.000885,0,0
0:4:51.004,537.941,68.4925,0,0.000885,0,0
0:4:53.401,542.047,69.0165,0,0.000885,0,0
0:4:55.801,547.033,69.6508,0,0.000885,0,0
0:4:58.200,551.726,70.2507,0,0.000885,0,0
0:5:0.606,556.535,70.8574,0,0.000885,0,0
0:5:3.005,561.108,71.4435,0,0.000885,0,0
0:5:5.403,566.152,72.0847,0,0.000885,0,0
0:5:7.809,570.551,72.6432,0,0.000885,0,0
0:5:10.209,575.48,73.2706,0,0.000885,0,0
0:5:12.602,579.759,73.8153,0,0.000885,0,0
0:5:15.002,585.506,74.5461,0,0.000885,0,0
0:5:17.399,589.438,75.0494,0,0.000885,0,0
0:5:19.797,594.136,75.6493,0,0.000885,0,0
0:5:22.199,598.183,76.1664,0,0.000885,0,0
0:5:24.600,603.117,76.7938,0,0.000885,0,0
0:5:27.011,608.575,77.4833,0,0.000885,0,0
0:5:29.400,613.036,78.0555,0,0.000885,0,0
0:5:31.808,617.965,78.683,0,0.000885,0,0
0:5:34.198,622.484,79.2552,0,0.000885,0,0
0:5:36.615,627.417,79.8827,0,0.000885,0,0
0:5:39.005,631.821,80.448,0,0.000885,0,0
0:5:41.416,636.22,81.0065,0,0.000885,0,0
0:5:43.814,641.153,81.6339,0,0.000885,0,0
0:5:46.221,646.024,82.2545,0,0.000885,0,0
0:5:48.611,651.189,82.9095,0,0.000885,0,0
0:5:51.021,655.414,83.4472,0,0.000885,0,0
0:5:53.407,660.169,84.054,0,0.000885,0,0
0:5:55.822,664.751,84.64,0,0.000885,0,0
0:5:58.215,669.795,85.2813,0,0.000885,0,0
0:6:0.610,674.141,85.8328,0,0.000885,0,0
0:6:3.008,679.306,86.4947,0,0.000885,0,0
0:6:5.397,683.709,87.0532,0,0.000885,0,0
0:6:7.813,688.932,87.7151,0,0.000885,0,0
0:6:10.207,692.806,88.2115,0,0.000885,0,0
0:6:12.609,697.855,88.8527,0,0.000885,0,0
0:6:15.004,702.316,89.425,0,0.000885,0,0
0:6:17.411,707.423,90.0731,0,0.000885,0,0
0:6:19.814,711.769,90.6247,0,0.000885,0,0
0:6:22.221,716.818,91.2659,0,0.000885,0,0
0:6:24.611,721.395,91.852,0,0.000885,0,0
0:6:27.016,725.914,92.4242,0,0.000885,0,0
0:6:29.400,730.376,92.9965,0,0.000885,0,0
0:6:31.816,735.367,93.6308,0,0.000885,0,0
0:6:34.202,740.237,94.2513,0,0.000885,0,0
0:6:36.612,745.108,94.8719,0,0.000885,0,0
0:6:39.015,749.218,95.3959,0,0.000885,0,0
0:6:41.416,754.209,96.0302,0,0.000885,0,0
0:6:43.803,759.138,96.6576,0,0.000885,0,0
0:6:46.214,763.6,97.223,0,0.000885,0,0
0:6:48.598,768.355,97.8297,0,0.000885,0,0
0:6:51.016,772.874,98.402,0,0.000885,0,0
0:6:53.406,777.981,99.057,0,0.000885,0,0
0:6:55.823,782.558,99.6361,0,0.000885,0,0
0:6:58.213,787.255,100.236,0,0.000885,0,0
0:7:0.617,791.717,100.801,0,0.000885,0,0
0:7:3.007,797.059,101.484,0,0.000885,0,0
0:7:5.415,801.521,102.049,0,0.000885,0,0
0:7:7.820,806.213,102.649,0,0.000885,0,0
0:7:10.205,811.026,103.263,0,0.000885,0,0
0:7:12.621,815.902,103.883,0,0.000885,0,0
0:7:15.012,820.421,104.462,0,0.000885,0,0
0:7:17.417,824.82,105.021,0,0.000885,0,0
0:7:19.805,829.46,105.607,0,0.000885,0,0
0:7:22.224,834.624,106.269,0,0.000885,0,0
0:7:24.611,839.495,106.889,0,0.000885,0,0
0:7:27.020,843.725,107.427,0,0.000885,0,0
0:7:29.410,848.36,108.013,0,0.000885,0,0
0:7:31.824,853.583,108.682,0,0.000885,0,0
0:7:34.206,858.4,109.296,0,0.000885,0,0
0:7:36.623,862.626,109.833,0,0.000885,0,0
0:7:39.009,867.203,110.413,0,0.000885,0,0
0:7:41.426,872.661,111.109,0,0.000885,0,0
0:7:43.810,876.656,111.619,0,0.000885,0,0
0:7:46.231,881.584,112.247,0,0.000885,0,0
0:7:48.621,886.517,112.874,0,0.000885,0,0
0:7:51.022,890.623,113.398,0,0.000885,0,0
0:7:53.422,895.672,114.039,0,0.000885,0,0
0:7:55.828,900.605,114.667,0,0.000885,0,0
0:7:58.216,905.24,115.26,0,0.000885,0,0
0:8:0.619,909.701,115.825,0,0.000885,0,0
0:8:3.023,914.986,116.501,0,0.000885,0,0
0:8:5.410,919.327,117.052,0,0.000885,0,0
0:8:7.810,923.967,117.645,0,0.000885,0,0
0:8:10.202,928.953,118.28,0,0.000885,0,0
0:8:12.616,933.535,118.859,0,0.000885,0,0
0:8:15.008,937.525,119.369,0,0.000885,0,0
0:8:17.417,942.809,120.045,0,0.000885,0,0
0:8:19.803,948.09,120.713,0,0.000885,0,0
0:8:22.209,952.435,121.265,0,0.000885,0,0
0:8:24.623,957.128,121.865,0,0.000885,0,0
0:8:27.022,962.177,122.506,0,0.000885,0,0
0:8:29.405,966.639,123.078,0,0.000885,0,0
0:8:31.825,970.749,123.602,0,0.000885,0,0
0:8:34.209,975.797,124.244,0,0.000885,0,0
0:8:36.627,979.61,124.726,0,0.000885,0,0
0:8:39.029,985.717,125.505,0,0.000885,0,0
0:8:41.439,989.885,126.036,0,0.000885,0,0
0:8:43.820,994.698,126.65,0,0.000885,0,0
0:8:46.230,999.333,127.236,0,0.000885,0,0
0:8:48.615,1003.68,127.794,0,0.000885,0,0
0:8:51.040,1009.19,128.498,0,0.000885,0,0
0:8:53.432,1013.6,129.056,0,0.000885,0,0
0:8:55.832,1018.76,129.711,0,0.000885,0,0
0:8:58.226,1023.46,130.311,0,0.000885,0,0
0:9:0.610,1027.63,130.842,0,0.000885,0,0
0:9:3.014,1032.91,131.517,0,0.000885,0,0
0:9:5.414,1037.14,132.055,0,0.000885,0,0
0:9:7.819,1041.95,132.662,0,0.000885,0,0
0:9:10.227,1046.12,133.193,0,0.000885,0,0
0:9:12.631,1051.46,133.876,0,0.000885,0,0
0:9:15.027,1054.98,134.324,0,0.000885,0,0
0:9:17.433,1060.74,135.055,0,0.000885,0,0
0:9:19.813,1065.02,135.599,0,0.000885,0,0
0:9:22.224,1069.78,136.206,0,0.000885,0,0
0:9:24.613,1075.29,136.909,0,0.000885,0,0
0:9:27.022,1079.17,137.406,0,0.000885,0,0
0:9:29.394,1083.45,137.95,0,0.000885,0,0
0:9:31.803,1089.32,138.695,0,0.000885,0,0
0:9:34.183,1093.78,139.267,0,0.000885,0,0
0:9:36.584,1097.83,139.777,0,0.000885,0,0
0:9:38.968,1103.35,140.481,0,0.000885,0,0
0:9:40.539,993.172,126.457,0,0.000885,0,0

File: DataFile2021-06-30_070245.csv
Test ID:,Date Tested:,Time:,Test Type:,Diameter Avg. (mm):,Cyl. Corr. Factor:,Height (mm):,Age (days):,Weight (kN):,Break Type:,Ramp Rate (MPa/s):,Load at Break (kN):,Stress at Break (MPa):
12,6/30/2021,07:02,Cylinder,100,1,200,0,3.6,3,0.25,1122.95,142.98
Sample Time,Load (kN),Stress (MPa),Long. Strain,Trans. Strain,Chan1 Deflection (mm),Chan2 Deflection (mm)
0:0:4.786,5.7471,0.730844,0,0.000885,0,0
0:0:7.170,10.0886,1.28242,0,0.000885,0,0
0:0:9.555,14.5457,1.85469,0,0.000885,0,0
0:0:11.972,19.2964,2.45453,0,0.000885,0,0
0:0:14.363,24.2206,3.08196,0,0.000885,0,0
0:0:16.773,28.6199,3.64733,0,0.000885,0,0
0:0:19.163,33.1971,4.22649,0,0.000885,0,0
0:0:21.578,37.9478,4.83322,0,0.000885,0,0
0:0:23.965,42.9921,5.47444,0,0.000885,0,0
0:0:26.377,47.9162,6.10186,0,0.000885,0,0
0:0:28.768,51.9063,6.61207,0,0.000885,0,0
0:0:31.172,57.3598,7.30155,0,0.000885,0,0
0:0:33.567,61.2876,7.80487,0,0.000885,0,0
0:0:35.973,65.9226,8.39092,0,0.000885,0,0
0:0:38.367,71.4963,9.10108,0,0.000885,0,0
0:0:40.769,75.6598,9.63198,0,0.000885,0,0
0:0:43.169,80.6463,10.2663,0,0.000885,0,0
0:0:45.564,85.219,10.8523,0,0.000885,0,0
0:0:47.972,90.4412,11.5142,0,0.000885,0,0
0:0:50.362,95.014,12.1003,0,0.000885,0,0
0:0:52.772,99.529,12.6726,0,0.000885,0,0
0:0:55.165,104.4,13.2931,0,0.000885,0,0
0:0:57.575,108.563,13.824,0,0.000885,0,0
0:0:59.962,113.545,14.4583,0,0.000885,0,0
0:1:2.374,118.065,15.0306,0,0.000885,0,0
0:1:4.763,122.637,15.6166,0,0.000885,0,0
0:1:7.177,127.508,16.2372,0,0.000885,0,0
0:1:9.562,133.02,16.9335,0,0.000885,0,0
0:1:11.974,137.183,17.4644,0,0.000885,0,0
0:1:14.366,141.992,18.0781,0,0.000885,0,0
0:1:16.778,146.449,18.6434,0,0.000885,0,0
0:1:19.166,151.493,19.2915,0,0.000885,0,0
0:1:21.577,155.892,19.85,0,0.000885,0,0
0:1:23.968,160.585,20.443,0,0.000885,0,0
0:1:26.375,165.514,21.0704,0,0.000885,0,0
0:1:28.766,170.202,21.6702,0,0.000885,0,0
0:1:31.174,175.131,22.2976,0,0.000885,0,0
0:1:33.566,179.53,22.8561,0,0.000885,0,0
0:1:35.969,184.161,23.4491,0,0.000885,0,0
0:1:38.369,188.974,24.0627,0,0.000885,0,0
0:1:40.767,193.898,24.6901,0,0.000885,0,0
0:1:43.148,198.649,25.29,0,0.000885,0,0
0:1:45.526,203.457,25.9036,0,0.000885,0,0
0:1:47.906,207.741,26.4483,0,0.000885,0,0
0:1:50.300,212.314,27.0343,0,0.000885,0,0
0:1:52.694,217.594,27.7031,0,0.000885,0,0
0:1:55.070,221.699,28.2271,0,0.000885,0,0
0:1:57.464,226.566,28.8477,0,0.000885,0,0
0:1:59.832,231.316,29.4544,0,0.000885,0,0
0:2:2.226,235.422,29.9784,0,0.000885,0,0
0:2:4.607,240.293,30.592,0,0.000885,0,0
0:2:7.010,245.395,31.247,0,0.000885,0,0
0:2:9.379,249.559,31.7779,0,0.000885,0,0
0:2:11.774,254.719,32.4329,0,0.000885,0,0
0:2:14.142,259.233,33.0052,0,0.000885,0,0
0:2:16.541,264.046,33.6188,0,0.000885,0,0
0:2:18.919,268.797,34.2256,0,0.000885,0,0
0:2:21.331,272.903,34.7496,0,0.000885,0,0
0:2:23.724,278.121,35.4115,0,0.000885,0,0
0:2:26.126,282.578,35.9768,0,0.000885,0,0
0:2:28.515,287.68,36.6318,0,0.000885,0,0
0:2:30.927,291.963,37.1765,0,0.000885,0,0
0:2:33.327,296.888,37.804,0,0.000885,0,0
0:2:35.720,301.758,38.4176,0,0.000885,0,0
0:2:38.106,305.98,38.9554,0,0.000885,0,0
0:2:40.494,310.731,39.5621,0,0.000885,0,0
0:2:42.877,315.423,40.162,0,0.000885,0,0
0:2:45.254,320.174,40.7687,0,0.000885,0,0
0:2:47.645,324.453,41.3134,0,0.000885,0,0
0:2:50.027,329.675,41.9753,0,0.000885,0,0
0:2:52.430,334.075,42.5338,0,0.000885,0,0
0:2:54.814,338.648,43.1198,0,0.000885,0,0
0:2:57.213,343.928,43.7886,0,0.000885,0,0
0:2:59.608,348.558,44.3816,0,0.000885,0,0
0:3:2.026,353.487,45.009,0,0.000885,0,0
0:3:4.426,357.886,45.5675,0,0.000885,0,0
0:3:6.828,362.695,46.1811,0,0.000885,0,0
0:3:9.229,367.503,46.7947,0,0.000885,0,0
0:3:11.625,371.729,47.3325,0,0.000885,0,0
0:3:14.032,376.889,47.9875,0,0.000885,0,0
0:3:16.429,381.23,48.5391,0,0.000885,0,0
0:3:18.829,386.8,49.2493,0,0.000885,0,0
0:3:21.242,391.083,49.7939,0,0.000885,0,0
0:3:23.622,395.598,50.3662,0,0.000885,0,0
0:3:26.032,400.233,50.9592,0,0.000885,0,0
0:3:28.427,405.393,51.6142,0,0.000885,0,0
0:3:30.830,409.85,52.1864,0,0.000885,0,0
0:3:33.235,414.365,52.7587,0,0.000885,0,0
0:3:35.642,418.822,53.3241,0,0.000885,0,0
0:3:38.024,423.693,53.9446,0,0.000885,0,0
0:3:40.432,427.914,54.4824,0,0.000885,0,0
0:3:42.834,433.195,55.1581,0,0.000885,0,0
0:3:45.231,437.532,55.7096,0,0.000885,0,0
0:3:47.634,442.576,56.3509,0,0.000885,0,0
0:3:50.041,448.207,57.0679,0,0.000885,0,0
0:3:52.435,452.135,57.5712,0,0.000885,0,0
0:3:54.831,456.712,58.1504,0,0.000885,0,0
0:3:57.234,461.343,58.7433,0,0.000885,0,0
0:3:59.636,465.804,59.3087,0,0.000885,0,0
0:4:2.026,470.786,59.943,0,0.000885,0,0
0:4:4.425,475.951,60.598,0,0.000885,0,0
0:4:6.831,480.346,61.1565,0,0.000885,0,0
0:4:9.237,485.568,61.8253,0,0.000885,0,0
0:4:11.634,489.616,62.3424,0,0.000885,0,0
0:4:14.036,494.776,62.9974,0,0.000885,0,0
0:4:16.441,499.411,63.5835,0,0.000885,0,0
0:4:18.837,503.632,64.1212,0,0.000885,0,0
0:4:21.246,508.85,64.79,0,0.000885,0,0
0:4:23.641,513.191,65.3416,0,0.000885,0,0
0:4:26.041,518.12,65.969,0,0.000885,0,0
0:4:28.437,522.519,66.5275,0,0.000885,0,0
0:4:30.842,527.621,67.1756,0,0.000885,0,0
0:4:33.239,532.603,67.8099,0,0.000885,0,0
0:4:35.642,537.06,68.3822,0,0.000885,0,0
0:4:38.035,541.522,68.9476,0,0.000885,0,0
0:4:40.436,546.331,69.5612,0,0.000885,0,0
0:4:42.839,551.255,70.1886,0,0.000885,0,0
0:4:45.236,555.481,70.7264,0,0.000885,0,0
0:4:47.642,560.525,71.3676,0,0.000885,0,0
0:4:50.024,564.982,71.933,0,0.000885,0,0
0:4:52.438,570.258,72.6087,0,0.000885,0,0
0:4:54.842,575.066,73.2223,0,0.000885,0,0
0:4:57.230,579.408,73.7739,0,0.000885,0,0
0:4:59.637,583.985,74.3531,0,0.000885,0,0
0:5:2.044,588.967,74.9874,0,0.000885,0,0
0:5:4.446,593.606,75.5803,0,0.000885,0,0
0:5:6.851,598.241,76.1733,0,0.000885,0,0
0:5:9.236,602.587,76.7249,0,0.000885,0,0
0:5:11.648,607.458,77.3454,0,0.000885,0,0
0:5:14.041,612.329,77.9659,0,0.000885,0,0
0:5:16.446,617.204,78.5864,0,0.000885,0,0
0:5:18.834,621.781,79.1656,0,0.000885,0,0
0:5:21.248,627.066,79.8413,0,0.000885,0,0
0:5:23.640,631.407,80.3929,0,0.000885,0,0
0:5:26.053,635.984,80.9789,0,0.000885,0,0
0:5:28.444,640.797,81.5857,0,0.000885,0,0
0:5:30.855,645.321,82.1648,0,0.000885,0,0
0:5:33.240,650.308,82.7991,0,0.000885,0,0
0:5:35.656,654.885,83.3852,0,0.000885,0,0
0:5:38.049,659.582,83.9781,0,0.000885,0,0
0:5:40.459,664.222,84.5711,0,0.000885,0,0
0:5:42.845,668.799,85.1571,0,0.000885,0,0
0:5:45.249,673.728,85.7846,0,0.000885,0,0
0:5:47.650,678.719,86.4189,0,0.000885,0,0
0:5:50.047,683.122,86.9774,0,0.000885,0,0
0:5:52.453,687.464,87.5289,0,0.000885,0,0
0:5:54.838,692.69,88.1977,0,0.000885,0,0
0:5:57.247,697.383,88.7907,0,0.000885,0,0
0:5:59.642,701.907,89.3698,0,0.000885,0,0
0:6:2.044,706.427,89.9421,0,0.000885,0,0
0:6:4.444,711.355,90.5695,0,0.000885,0,0
0:6:6.852,716.052,91.1694,0,0.000885,0,0
0:6:9.238,720.688,91.7623,0,0.000885,0,0
0:6:11.654,725.269,92.3415,0,0.000885,0,0
0:6:14.047,730.256,92.9758,0,0.000885,0,0
0:6:16.463,734.775,93.555,0,0.000885,0,0
0:6:18.853,739.53,94.1617,0,0.000885,0,0
0:6:21.256,744.285,94.7684,0,0.000885,0,0
0:6:23.649,749.218,95.3959,0,0.000885,0,0
0:6:26.060,753.56,95.9474,0,0.000885,0,0
0:6:28.448,758.724,96.6024,0,0.000885,0,0
0:6:30.861,762.95,97.1402,0,0.000885,0,0
0:6:33.247,767.825,97.7608,0,0.000885,0,0
0:6:35.654,773.048,98.4296,0,0.000885,0,0
0:6:38.050,777.216,98.9605,0,0.000885,0,0
0:6:40.457,782.38,99.6155,0,0.000885,0,0
0:6:42.848,786.548,100.146,0,0.000885,0,0
0:6:45.254,791.423,100.767,0,0.000885,0,0
0:6:47.658,796.645,101.429,0,0.000885,0,0
0:6:50.053,800.462,101.918,0,0.000885,0,0
0:6:52.449,806.098,102.635,0,0.000885,0,0
0:6:54.854,810.559,103.201,0,0.000885,0,0
0:6:57.256,815.079,103.78,0,0.000885,0,0
0:6:59.642,819.714,104.366,0,0.000885,0,0
0:7:2.052,824.411,104.966,0,0.000885,0,0
0:7:4.449,829.518,105.621,0,0.000885,0,0
0:7:6.855,833.628,106.138,0,0.000885,0,0
0:7:9.250,838.734,106.793,0,0.000885,0,0
0:7:11.655,843.312,107.372,0,0.000885,0,0
0:7:14.045,848.182,107.993,0,0.000885,0,0
0:7:16.462,852.177,108.503,0,0.000885,0,0
0:7:18.850,857.106,109.13,0,0.000885,0,0
0:7:21.262,862.506,109.82,0,0.000885,0,0
0:7:23.659,867.083,110.399,0,0.000885,0,0
0:7:26.061,871.251,110.93,0,0.000885,0,0
0:7:28.453,876.126,111.55,0,0.000885,0,0
0:7:30.863,880.761,112.143,0,0.000885,0,0
0:7:33.247,885.926,112.798,0,0.000885,0,0
0:7:35.663,890.387,113.37,0,0.000885,0,0
0:7:38.056,895.084,113.963,0,0.000885,0,0
0:7:40.464,899.955,114.584,0,0.000885,0,0
0:7:42.862,904.533,115.17,0,0.000885,0,0
0:7:45.256,909.644,115.818,0,0.000885,0,0
0:7:47.649,914.101,116.39,0,0.000885,0,0
0:7:50.061,919.034,117.018,0,0.000885,0,0
0:7:52.455,923.375,117.569,0,0.000885,0,0
0:7:54.849,928.073,118.169,0,0.000885,0,0
0:7:57.255,932.65,118.748,0,0.000885,0,0
0:7:59.654,937.641,119.383,0,0.000885,0,0
0:8:2.060,942.218,119.969,0,0.000885,0,0
0:8:4.464,946.8,120.548,0,0.000885,0,0
0:8:6.868,951.906,121.203,0,0.000885,0,0
0:8:9.246,956.483,121.782,0,0.000885,0,0
0:8:11.666,961.118,122.375,0,0.000885,0,0
0:8:14.056,965.522,122.934,0,0.000885,0,0
0:8:16.460,970.686,123.589,0,0.000885,0,0
0:8:18.865,975.442,124.195,0,0.000885,0,0
0:8:21.269,979.788,124.754,0,0.000885,0,0
0:8:23.658,985.01,125.416,0,0.000885,0,0
0:8:26.069,989.298,125.96,0,0.000885,0,0
0:8:28.457,994.814,126.664,0,0.000885,0,0
0:8:30.867,998.394,127.119,0,0.000885,0,0
0:8:33.251,1003.5,127.767,0,0.000885,0,0
0:8:35.671,1008.67,128.429,0,0.000885,0,0
0:8:38.059,1012.6,128.925,0,0.000885,0,0
0:8:40.463,1017.94,129.608,0,0.000885,0,0
0:8:42.855,1022.64,130.207,0,0.000885,0,0
0:8:45.254,1027.63,130.842,0,0.000885,0,0
0:8:47.655,1031.62,131.352,0,0.000885,0,0
0:8:50.059,1036.61,131.986,0,0.000885,0,0
0:8:52.464,1041.07,132.552,0,0.000885,0,0
0:8:54.862,1046.29,133.221,0,0.000885,0,0
0:8:57.265,1050.64,133.772,0,0.000885,0,0
0:8:59.647,1055.57,134.4,0,0.000885,0,0
0:9:2.063,1060.09,134.972,0,0.000885,0,0
0:9:4.464,1064.66,135.558,0,0.000885,0,0
0:9:6.872,1070.54,136.302,0,0.000885,0,0
0:9:9.261,1074,136.744,0,0.000885,0,0
0:9:11.664,1079.17,137.406,0,0.000885,0,0
0:9:14.058,1083.92,138.005,0,0.000885,0,0
0:9:16.483,1088.56,138.598,0,0.000885,0,0
0:9:18.863,1093.43,139.219,0,0.000885,0,0
0:9:21.271,1097.48,139.736,0,0.000885,0,0
0:9:23.658,1102.7,140.398,0,0.000885,0,0
0:9:26.072,1106.58,140.894,0,0.000885,0,0
0:9:28.464,1111.1,141.467,0,0.000885,0,0
0:9:30.861,1118.2,142.377,0,0.000885,0,0
0:9:33.272,1114.56,141.908,0,0.000885,0,0
0:9:34.854,1075.53,136.937,0,0.000885,0,0