Folder: Experiment-Files (part 44)

File: DataFile2021-06-24_061154.csv
Test ID:,Date Tested:,Time:,Test Type:,Diameter Avg. (mm):,Cyl. Corr. Factor:,Height (mm):,Age (days):,Weight (kN):,Break Type:,Ramp Rate (MPa/s):,Load at Break (kN):,Stress at Break (MPa):
12,6/24/2021,06:11,Cylinder,150,1,300,0,3.6,3,0.24,618.44,35
Sample Time,Load (kN),Stress (MPa),Long. Strain,Trans. Strain,Chan1 Deflection (mm),Chan2 Deflection (mm)
0:0:19.984,6.27644,0.358527,0,0.000885,0,0
0:0:20.675,17.655,0.99974,0,0.000885,0,0
0:0:21.373,17.1257,0.972161,0,0.000885,0,0
0:0:22.066,16.5963,0.937687,0,0.000885,0,0
0:0:22.759,17.1835,0.972161,0,0.000885,0,0
0:0:23.459,19.0028,1.07558,0,0.000885,0,0
0:0:24.163,21.8185,1.23416,0,0.000885,0,0
0:0:24.859,26.16,1.48237,0,0.000885,0,0
0:0:25.560,30.3235,1.71679,0,0.000885,0,0
0:0:26.271,34.4292,1.95122,0,0.000885,0,0
0:0:26.977,36.6,2.06843,0,0.000885,0,0
0:0:27.677,39.002,2.20632,0,0.000885,0,0
0:0:28.369,41.8756,2.3718,0,0.000885,0,0
0:0:29.069,45.1005,2.55106,0,0.000885,0,0
0:0:29.766,48.4456,2.74411,0,0.000885,0,0
0:0:30.469,52.4935,2.97164,0,0.000885,0,0
0:0:31.177,54.4284,3.08196,0,0.000885,0,0
0:0:31.880,57.7691,3.26811,0,0.000885,0,0
0:0:32.574,60.6426,3.43359,0,0.000885,0,0
0:0:33.275,63.9877,3.61975,0,0.000885,0,0
0:0:33.968,66.8612,3.78522,0,0.000885,0,0
0:0:34.666,70.4376,3.98517,0,0.000885,0,0
0:0:35.367,73.1955,4.14375,0,0.000885,0,0
0:0:36.076,76.3626,4.32301,0,0.000885,0,0
0:0:36.785,79.5298,4.50228,0,0.000885,0,0
0:0:37.482,82.5812,4.67465,0,0.000885,0,0
0:0:38.176,85.7484,4.85391,0,0.000885,0,0
0:0:38.875,88.3862,4.9987,0,0.000885,0,0
0:0:39.573,91.9047,5.19865,0,0.000885,0,0
0:0:40.267,94.8984,5.37102,0,0.000885,0,0
0:0:40.977,97.8297,5.53649,0,0.000885,0,0
0:0:41.686,100.997,5.71575,0,0.000885,0,0
0:0:42.384,104.28,5.90191,0,0.000885,0,0
0:0:43.084,107.505,6.08118,0,0.000885,0,0
0:0:43.778,110.378,6.24665,0,0.000885,0,0
0:0:44.475,113.43,6.41902,0,0.000885,0,0
0:0:45.175,116.597,6.59828,0,0.000885,0,0
0:0:45.887,119.177,6.74307,0,0.000885,0,0
0:0:46.594,123.225,6.9706,0,0.000885,0,0
0:0:47.291,126.04,7.12918,0,0.000885,0,0
0:0:47.985,128.736,7.28776,0,0.000885,0,0
0:0:48.684,131.787,7.46013,0,0.000885,0,0
0:0:49.380,134.777,7.6256,0,0.000885,0,0
0:0:50.077,138.18,7.81865,0,0.000885,0,0
0:0:50.788,141.76,8.0186,0,0.000885,0,0
0:0:51.494,144.34,8.17029,0,0.000885,0,0
0:0:52.195,147.094,8.32197,0,0.000885,0,0
0:0:52.891,150.03,8.48745,0,0.000885,0,0
0:0:53.586,153.312,8.6736,0,0.000885,0,0
0:0:54.286,157.125,8.89424,0,0.000885,0,0
0:0:54.981,159.998,9.05282,0,0.000885,0,0
0:0:55.688,162.698,9.2045,0,0.000885,0,0
0:0:56.395,165.865,9.38376,0,0.000885,0,0
0:0:57.099,169.09,9.56992,0,0.000885,0,0
0:0:57.797,173.018,9.79056,0,0.000885,0,0
0:0:58.495,175.598,9.93535,0,0.000885,0,0
0:0:59.189,178.414,10.0939,0,0.000885,0,0
0:0:59.887,180.878,10.2387,0,0.000885,0,0
0:1:0.586,184.223,10.4249,0,0.000885,0,0
0:1:1.295,187.448,10.6041,0,0.000885,0,0
0:1:2.004,191.434,10.8317,0,0.000885,0,0
0:1:2.699,194.601,11.0109,0,0.000885,0,0
0:1:3.388,197.123,11.1557,0,0.000885,0,0
0:1:4.084,199.881,11.3143,0,0.000885,0,0
0:1:4.775,202.812,11.4798,0,0.000885,0,0
0:1:5.474,205.979,11.659,0,0.000885,0,0
0:1:6.177,208.622,11.8038,0,0.000885,0,0
0:1:6.874,212.607,12.0314,0,0.000885,0,0
0:1:7.565,215.187,12.1761,0,0.000885,0,0
0:1:8.261,218.941,12.3899,0,0.000885,0,0
0:1:8.957,221.757,12.5485,0,0.000885,0,0
0:1:9.660,224.573,12.707,0,0.000885,0,0
0:1:10.354,227.331,12.8656,0,0.000885,0,0
0:1:11.061,231.552,13.1,0,0.000885,0,0
0:1:11.760,234.368,13.2655,0,0.000885,0,0
0:1:12.451,237.064,13.4172,0,0.000885,0,0
0:1:13.149,240.115,13.5896,0,0.000885,0,0
0:1:13.843,242.931,13.7481,0,0.000885,0,0
0:1:14.537,245.92,13.9136,0,0.000885,0,0
0:1:15.226,248.793,14.0791,0,0.000885,0,0
0:1:15.930,252.548,14.2928,0,0.000885,0,0
0:1:16.634,255.773,14.4721,0,0.000885,0,0
0:1:17.328,258.709,14.6376,0,0.000885,0,0
0:1:18.022,261.756,14.8099,0,0.000885,0,0
0:1:18.714,264.398,14.9616,0,0.000885,0,0
0:1:19.405,267.329,15.1271,0,0.000885,0,0
0:1:20.100,270.439,15.3064,0,0.000885,0,0
0:1:20.806,274.486,15.5339,0,0.000885,0,0
0:1:21.506,277.124,15.6787,0,0.000885,0,0
0:1:22.200,280.113,15.851,0,0.000885,0,0
0:1:22.888,283.165,16.0234,0,0.000885,0,0
0:1:23.580,286.096,16.1889,0,0.000885,0,0
0:1:24.275,288.739,16.3406,0,0.000885,0,0
0:1:24.963,292.257,16.5405,0,0.000885,0,0
0:1:25.667,295.598,16.7267,0,0.000885,0,0
0:1:26.371,298.591,16.8991,0,0.000885,0,0
0:1:27.066,301.465,17.0576,0,0.000885,0,0
0:1:27.757,304.983,17.2576,0,0.000885,0,0
0:1:28.459,307.621,17.4093,0,0.000885,0,0
0:1:29.148,310.615,17.5747,0,0.000885,0,0
0:1:29.843,313.662,17.7471,0,0.000885,0,0
0:1:30.539,317.243,17.9539,0,0.000885,0,0
0:1:31.243,319.881,18.0987,0,0.000885,0,0
0:1:31.944,323.105,18.2849,0,0.000885,0,0
0:1:32.645,326.037,18.4504,0,0.000885,0,0
0:1:33.355,329.204,18.6296,0,0.000885,0,0
0:1:34.070,332.843,18.8365,0,0.000885,0,0
0:1:34.757,335.774,19.002,0,0.000885,0,0
0:1:35.463,338.59,19.1605,0,0.000885,0,0
0:1:36.165,341.285,19.3122,0,0.000885,0,0
0:1:36.857,344.337,19.4846,0,0.000885,0,0
0:1:37.551,347.74,19.6776,0,0.000885,0,0
0:1:38.244,350.849,19.8569,0,0.000885,0,0
0:1:38.942,354.19,20.0431,0,0.000885,0,0
0:1:39.646,357.121,20.2085,0,0.000885,0,0
0:1:40.341,360.524,20.4016,0,0.000885,0,0
0:1:41.044,362.93,20.5395,0,0.000885,0,0
0:1:41.745,366.391,20.7325,0,0.000885,0,0
0:1:42.464,369.852,20.9325,0,0.000885,0,0
0:1:43.157,372.725,21.0911,0,0.000885,0,0
0:1:43.849,375.95,21.2772,0,0.000885,0,0
0:1:44.556,378.472,21.4151,0,0.000885,0,0
0:1:45.264,381.346,21.5806,0,0.000885,0,0
0:1:45.969,385.216,21.8012,0,0.000885,0,0
0:1:46.670,388.499,21.9874,0,0.000885,0,0
0:1:47.364,391.083,22.1322,0,0.000885,0,0
0:1:48.065,393.957,22.2908,0,0.000885,0,0
0:1:48.766,397.24,22.4769,0,0.000885,0,0
0:1:49.469,401.523,22.7182,0,0.000885,0,0
0:1:50.156,403.867,22.8561,0,0.000885,0,0
0:1:50.857,406.683,23.0147,0,0.000885,0,0
0:1:51.560,409.499,23.1733,0,0.000885,0,0
0:1:52.266,412.43,23.3388,0,0.000885,0,0
0:1:52.970,415.304,23.5042,0,0.000885,0,0
0:1:53.664,419,23.7111,0,0.000885,0,0
0:1:54.351,422.634,23.9179,0,0.000885,0,0
0:1:55.046,425.802,24.0972,0,0.000885,0,0
0:1:55.752,428.324,24.2351,0,0.000885,0,0
0:1:56.453,430.672,24.373,0,0.000885,0,0
0:1:57.148,434.307,24.5798,0,0.000885,0,0
0:1:57.846,437.3,24.7453,0,0.000885,0,0
0:1:58.549,441.228,24.9659,0,0.000885,0,0
0:1:59.244,444.395,25.1452,0,0.000885,0,0
0:1:59.940,446.859,25.29,0,0.000885,0,0
0:2:0.644,449.906,25.4623,0,0.000885,0,0
0:2:1.345,452.549,25.6071,0,0.000885,0,0
0:2:2.038,455.716,25.7864,0,0.000885,0,0
0:2:2.735,459.528,26.007,0,0.000885,0,0
0:2:3.428,462.224,26.1587,0,0.000885,0,0
0:2:4.117,464.924,26.3104,0,0.000885,0,0
0:2:4.811,468.206,26.4966,0,0.000885,0,0
0:2:5.506,471.022,26.6551,0,0.000885,0,0
0:2:6.210,474.189,26.8344,0,0.000885,0,0
0:2:6.912,477.299,27.0068,0,0.000885,0,0
0:2:7.602,480.702,27.1998,0,0.000885,0,0
0:2:8.296,483.984,27.386,0,0.000885,0,0
0:2:8.989,487.209,27.5721,0,0.000885,0,0
0:2:9.676,489.731,27.71,0,0.000885,0,0
0:2:10.382,492.547,27.8755,0,0.000885,0,0
0:2:11.085,495.888,28.0617,0,0.000885,0,0
0:2:11.779,498.824,28.2271,0,0.000885,0,0
0:2:12.475,502.4,28.4271,0,0.000885,0,0
0:2:13.174,505.038,28.5788,0,0.000885,0,0
0:2:13.866,507.738,28.7305,0,0.000885,0,0
0:2:14.569,511.666,28.9511,0,0.000885,0,0
0:2:15.278,514.308,29.1028,0,0.000885,0,0
0:2:15.981,517.181,29.2682,0,0.000885,0,0
0:2:16.679,520.642,29.4613,0,0.000885,0,0
0:2:17.371,523.338,29.613,0,0.000885,0,0
0:2:18.075,526.683,29.806,0,0.000885,0,0
0:2:18.772,529.85,29.9853,0,0.000885,0,0
0:2:19.475,532.955,30.1577,0,0.000885,0,0
0:2:20.170,535.833,30.3231,0,0.000885,0,0
0:2:20.874,539.938,30.5576,0,0.000885,0,0
0:2:21.576,542.167,30.6817,0,0.000885,0,0
0:2:22.275,545.156,30.8471,0,0.000885,0,0
0:2:22.967,548.439,31.0333,0,0.000885,0,0
0:2:23.674,551.313,31.1988,0,0.000885,0,0
0:2:24.369,554.128,31.3574,0,0.000885,0,0
0:2:25.074,557.709,31.5573,0,0.000885,0,0
0:2:25.778,560.934,31.7435,0,0.000885,0,0
0:2:26.481,563.808,31.902,0,0.000885,0,0
0:2:27.175,566.681,32.0675,0,0.000885,0,0
0:2:27.873,569.848,32.2468,0,0.000885,0,0
0:2:28.575,573.193,32.4329,0,0.000885,0,0
0:2:29.270,575.947,32.5915,0,0.000885,0,0
0:2:29.976,579.408,32.7846,0,0.000885,0,0
0:2:30.681,582.339,32.9569,0,0.000885,0,0
0:2:31.383,584.923,33.1017,0,0.000885,0,0
0:2:32.079,587.97,33.2741,0,0.000885,0,0
0:2:32.776,591.725,33.4878,0,0.000885,0,0
0:2:33.468,594.487,33.6395,0,0.000885,0,0
0:2:34.175,597.303,33.7981,0,0.000885,0,0
0:2:34.871,600.706,33.9912,0,0.000885,0,0
0:2:35.573,603.174,34.1359,0,0.000885,0,0
0:2:36.279,605.523,34.2669,0,0.000885,0,0
0:2:36.978,609.104,34.4669,0,0.000885,0,0
0:2:37.673,611.448,34.5979,0,0.000885,0,0
0:2:38.369,614.033,34.7496,0,0.000885,0,0
0:2:39.071,616.088,34.8668,0,0.000885,0,0
0:2:39.766,617.729,34.9564,0,0.000885,0,0
0:2:40.474,618.2,34.984,0,0.000885,0,0
0:2:41.182,614.798,34.7909,0,0.000885,0,0
0:2:41.885,598.419,33.8602,0,0.000885,0,0
0:2:42.573,555.303,31.4263,0,0.000885,0,0
0:2:43.272,513.601,29.0614,0,0.000885,0,0
0:2:43.975,482.752,27.317,0,0.000885,0,0
0:2:44.671,444.924,25.1797,0,0.000885,0,0
0:2:44.932,438.003,24.7867,0,0.000885,0,0

File: DataFile2021-06-24_062053.csv
Test ID:,Date Tested:,Time:,Test Type:,Diameter Avg. (mm):,Cyl. Corr. Factor:,Height (mm):,Age (days):,Weight (kN):,Break Type:,Ramp Rate (MPa/s):,Load at Break (kN):,Stress at Break (MPa):
12,6/24/2021,06:20,Cylinder,150,1,300,0,3.6,3,0.24,606.99,34.35
Sample Time,Load (kN),Stress (MPa),Long. Strain,Trans. Strain,Chan1 Deflection (mm),Chan2 Deflection (mm)
0:0:17.827,6.68568,0.379212,0,0.000885,0,0
0:0:18.533,15.5421,0.882529,0,0.000885,0,0
0:0:19.245,14.43,0.813581,0,0.000885,0,0
0:0:19.944,13.9007,0.786002,0,0.000885,0,0
0:0:20.646,15.3686,0.868739,0,0.000885,0,0
0:0:21.342,19.59,1.11006,0,0.000885,0,0
0:0:22.042,23.2242,1.3169,0,0.000885,0,0
0:0:22.756,26.9785,1.52374,0,0.000885,0,0
0:0:23.464,31.4934,1.77885,0,0.000885,0,0
0:0:24.171,34.6027,1.95811,0,0.000885,0,0
0:0:24.873,37.245,2.1098,0,0.000885,0,0
0:0:25.573,39.7671,2.24769,0,0.000885,0,0
0:0:26.267,42.9342,2.42695,0,0.000885,0,0
0:0:26.963,45.9813,2.59932,0,0.000885,0,0
0:0:27.663,48.5612,2.75101,0,0.000885,0,0
0:0:28.363,51.9641,2.93717,0,0.000885,0,0
0:0:29.071,55.1313,3.11643,0,0.000885,0,0
0:0:29.775,58.0626,3.2888,0,0.000885,0,0
0:0:30.473,62.0527,3.50943,0,0.000885,0,0
0:0:31.172,65.0419,3.6818,0,0.000885,0,0
0:0:31.865,67.5062,3.8197,0,0.000885,0,0
0:0:32.564,70.4376,3.98517,0,0.000885,0,0
0:0:33.262,73.5469,4.16443,0,0.000885,0,0
0:0:33.971,76.892,4.35059,0,0.000885,0,0
0:0:34.678,80.1747,4.53675,0,0.000885,0,0
0:0:35.374,82.7547,4.68154,0,0.000885,0,0
0:0:36.072,86.042,4.8677,0,0.000885,0,0
0:0:36.769,89.6761,5.07454,0,0.000885,0,0
0:0:37.462,92.4919,5.23312,0,0.000885,0,0
0:0:38.163,95.1297,5.38481,0,0.000885,0,0
0:0:38.871,98.4747,5.57096,0,0.000885,0,0
0:0:39.576,102.051,5.77781,0,0.000885,0,0
0:0:40.277,104.573,5.9157,0,0.000885,0,0
0:0:40.972,107.74,6.09497,0,0.000885,0,0
0:0:41.666,110.44,6.24665,0,0.000885,0,0
0:0:42.367,114.19,6.46039,0,0.000885,0,0
0:0:43.062,117.887,6.67413,0,0.000885,0,0
0:0:43.768,120.235,6.80513,0,0.000885,0,0
0:0:44.474,122.931,6.95681,0,0.000885,0,0
0:0:45.174,125.862,7.12228,0,0.000885,0,0
0:0:45.874,129.03,7.30155,0,0.000885,0,0
0:0:46.572,133.02,7.52907,0,0.000885,0,0
0:0:47.265,135.657,7.67386,0,0.000885,0,0
0:0:47.965,138.709,7.84623,0,0.000885,0,0
0:0:48.673,141.76,8.0186,0,0.000885,0,0
0:0:49.380,144.398,8.17029,0,0.000885,0,0
0:0:50.081,148.562,8.40471,0,0.000885,0,0
0:0:50.773,151.377,8.56329,0,0.000885,0,0
0:0:51.472,154.602,8.74945,0,0.000885,0,0
0:0:52.169,157.067,8.88734,0,0.000885,0,0
0:0:52.864,160.114,9.05971,0,0.000885,0,0
0:0:53.573,163.05,9.22519,0,0.000885,0,0
0:0:54.278,166.626,9.43203,0,0.000885,0,0
0:0:54.978,169.615,9.5975,0,0.000885,0,0
0:0:55.676,173.018,9.79056,0,0.000885,0,0
0:0:56.371,175.834,9.94913,0,0.000885,0,0
0:0:57.070,179.179,10.1422,0,0.000885,0,0
0:0:57.767,181.701,10.2801,0,0.000885,0,0
0:0:58.474,185.335,10.4869,0,0.000885,0,0
0:0:59.181,188.387,10.6593,0,0.000885,0,0
0:0:59.880,191.554,10.8386,0,0.000885,0,0
0:1:0.577,194.307,10.9971,0,0.000885,0,0
0:1:1.270,197.71,11.1902,0,0.000885,0,0
0:1:1.957,200.29,11.335,0,0.000885,0,0
0:1:2.651,203.106,11.4936,0,0.000885,0,0
0:1:3.357,206.682,11.6935,0,0.000885,0,0
0:1:4.061,210.205,11.8935,0,0.000885,0,0
0:1:4.761,213.31,12.0727,0,0.000885,0,0
0:1:5.450,216.068,12.2244,0,0.000885,0,0
0:1:6.155,218.59,12.3692,0,0.000885,0,0
0:1:6.858,222.051,12.5622,0,0.000885,0,0
0:1:7.558,225.454,12.7553,0,0.000885,0,0
0:1:8.251,228.443,12.9277,0,0.000885,0,0
0:1:8.958,231.143,13.0794,0,0.000885,0,0
0:1:9.657,234.132,13.2517,0,0.000885,0,0
0:1:10.350,237.419,13.4379,0,0.000885,0,0
0:1:11.061,241.232,13.6516,0,0.000885,0,0
0:1:11.750,243.811,13.7964,0,0.000885,0,0
0:1:12.456,247.036,13.9826,0,0.000885,0,0
0:1:13.153,249.501,14.1205,0,0.000885,0,0
0:1:13.856,253.135,14.3273,0,0.000885,0,0
0:1:14.559,255.893,14.479,0,0.000885,0,0
0:1:15.251,259.585,14.6927,0,0.000885,0,0
0:1:15.966,262.401,14.8513,0,0.000885,0,0
0:1:16.657,265.568,15.0306,0,0.000885,0,0
0:1:17.358,268.504,15.196,0,0.000885,0,0
0:1:18.049,271.319,15.3546,0,0.000885,0,0
0:1:18.753,274.073,15.5063,0,0.000885,0,0
0:1:19.457,277.885,15.7269,0,0.000885,0,0
0:1:20.151,280.879,15.8924,0,0.000885,0,0
0:1:20.859,284.161,16.0786,0,0.000885,0,0
0:1:21.552,286.683,16.2234,0,0.000885,0,0
0:1:22.245,289.615,16.3888,0,0.000885,0,0
0:1:22.963,293.253,16.5957,0,0.000885,0,0
0:1:23.667,296.421,16.7749,0,0.000885,0,0
0:1:24.368,299.53,16.9473,0,0.000885,0,0
0:1:25.063,302.403,17.1128,0,0.000885,0,0
0:1:25.758,305.628,17.2921,0,0.000885,0,0
0:1:26.447,308.738,17.4713,0,0.000885,0,0
0:1:27.137,311.26,17.6161,0,0.000885,0,0
0:1:27.842,314.543,17.8023,0,0.000885,0,0
0:1:28.558,317.825,17.9884,0,0.000885,0,0
0:1:29.261,320.761,18.1539,0,0.000885,0,0
0:1:29.963,324.222,18.3469,0,0.000885,0,0
0:1:30.660,326.74,18.4917,0,0.000885,0,0
0:1:31.365,330.378,18.6986,0,0.000885,0,0
0:1:32.058,333.839,18.8916,0,0.000885,0,0
0:1:32.753,336.597,19.0502,0,0.000885,0,0
0:1:33.459,339.586,19.2157,0,0.000885,0,0
0:1:34.160,342.638,19.3881,0,0.000885,0,0
0:1:34.851,345.627,19.5604,0,0.000885,0,0
0:1:35.556,348.852,19.7397,0,0.000885,0,0
0:1:36.255,352.255,19.9327,0,0.000885,0,0
0:1:36.956,355.07,20.0913,0,0.000885,0,0
0:1:37.651,358.295,20.2775,0,0.000885,0,0
0:1:38.356,360.644,20.4085,0,0.000885,0,0
0:1:39.062,364.456,20.6222,0,0.000885,0,0
0:1:39.761,367.855,20.8153,0,0.000885,0,0
0:1:40.461,370.319,20.9532,0,0.000885,0,0
0:1:41.165,373.78,21.1531,0,0.000885,0,0
0:1:41.865,376.244,21.291,0,0.000885,0,0
0:1:42.554,379.291,21.4634,0,0.000885,0,0
0:1:43.269,383.397,21.6978,0,0.000885,0,0
0:1:43.973,385.51,21.815,0,0.000885,0,0
0:1:44.674,389.322,22.0287,0,0.000885,0,0
0:1:45.369,392.431,22.208,0,0.000885,0,0
0:1:46.069,395.362,22.3735,0,0.000885,0,0
0:1:46.761,398.53,22.5528,0,0.000885,0,0
0:1:47.452,401.581,22.7251,0,0.000885,0,0
0:1:48.161,404.455,22.8906,0,0.000885,0,0
0:1:48.865,407.27,23.0492,0,0.000885,0,0
0:1:49.566,410.437,23.2284,0,0.000885,0,0
0:1:50.260,413.427,23.3939,0,0.000885,0,0
0:1:50.966,417.003,23.6008,0,0.000885,0,0
0:1:51.653,420.232,23.78,0,0.000885,0,0
0:1:52.353,422.928,23.9317,0,0.000885,0,0
0:1:53.057,426.624,24.1385,0,0.000885,0,0
0:1:53.762,429.027,24.2764,0,0.000885,0,0
0:1:54.463,431.842,24.435,0,0.000885,0,0
0:1:55.166,436.126,24.6763,0,0.000885,0,0
0:1:55.862,438.822,24.8349,0,0.000885,0,0
0:1:56.565,441.637,24.9935,0,0.000885,0,0
0:1:57.256,444.804,25.1728,0,0.000885,0,0
0:1:57.952,447.562,25.3244,0,0.000885,0,0
0:1:58.656,450.494,25.4899,0,0.000885,0,0
0:1:59.357,454.542,25.7243,0,0.000885,0,0
0:2:0.062,457.179,25.8691,0,0.000885,0,0
0:2:0.755,460.346,26.0484,0,0.000885,0,0
0:2:1.445,463.104,26.207,0,0.000885,0,0
0:2:2.155,466.094,26.3724,0,0.000885,0,0
0:2:2.858,469.145,26.5448,0,0.000885,0,0
0:2:3.563,473.015,26.7654,0,0.000885,0,0
0:2:4.268,475.831,26.924,0,0.000885,0,0
0:2:4.966,479.118,27.1102,0,0.000885,0,0
0:2:5.664,481.636,27.255,0,0.000885,0,0
0:2:6.367,484.394,27.4136,0,0.000885,0,0
0:2:7.068,488.09,27.6204,0,0.000885,0,0
0:2:7.767,491.079,27.7928,0,0.000885,0,0
0:2:8.470,494.015,27.9582,0,0.000885,0,0
0:2:9.175,497.534,28.1513,0,0.000885,0,0
0:2:9.875,500.465,28.3237,0,0.000885,0,0
0:2:10.570,503.396,28.4891,0,0.000885,0,0
0:2:11.267,506.857,28.6822,0,0.000885,0,0
0:2:11.969,509.851,28.8546,0,0.000885,0,0
0:2:12.671,512.604,29.0062,0,0.000885,0,0
0:2:13.367,515.598,29.1786,0,0.000885,0,0
0:2:14.071,519.059,29.3717,0,0.000885,0,0
0:2:14.771,522.283,29.5578,0,0.000885,0,0
0:2:15.468,525.273,29.7233,0,0.000885,0,0
0:2:16.172,528.088,29.8819,0,0.000885,0,0
0:2:16.863,531.198,30.0611,0,0.000885,0,0
0:2:17.571,534.543,30.2473,0,0.000885,0,0
0:2:18.266,537.238,30.399,0,0.000885,0,0
0:2:18.971,541.108,30.6196,0,0.000885,0,0
0:2:19.671,543.395,30.7506,0,0.000885,0,0
0:2:20.366,546.504,30.923,0,0.000885,0,0
0:2:21.064,549.498,31.0954,0,0.000885,0,0
0:2:21.756,552.958,31.2884,0,0.000885,0,0
0:2:22.448,555.89,31.4539,0,0.000885,0,0
0:2:23.148,559.76,31.6745,0,0.000885,0,0
0:2:23.852,562.46,31.8262,0,0.000885,0,0
0:2:24.553,565.04,31.9779,0,0.000885,0,0
0:2:25.257,567.913,32.1365,0,0.000885,0,0
0:2:25.952,571.196,32.3226,0,0.000885,0,0
0:2:26.642,573.954,32.4812,0,0.000885,0,0
0:2:27.333,577.708,32.6949,0,0.000885,0,0
0:2:28.027,580.933,32.8742,0,0.000885,0,0
0:2:28.732,583.34,33.0121,0,0.000885,0,0
0:2:29.435,586.329,33.1776,0,0.000885,0,0
0:2:30.130,588.909,33.3224,0,0.000885,0,0
0:2:30.821,591.903,33.4947,0,0.000885,0,0
0:2:31.518,595.012,33.674,0,0.000885,0,0
0:2:32.215,598.126,33.8464,0,0.000885,0,0
0:2:32.907,600.474,33.9774,0,0.000885,0,0
0:2:33.614,602.645,34.1015,0,0.000885,0,0
0:2:34.321,604.874,34.2256,0,0.000885,0,0
0:2:35.018,606.755,34.3359,0,0.000885,0,0
0:2:35.716,606.987,34.3497,0,0.000885,0,0
0:2:36.409,603.935,34.1773,0,0.000885,0,0
0:2:37.101,588.735,33.3155,0,0.000885,0,0
0:2:37.795,571.61,32.3433,0,0.000885,0,0
0:2:38.487,536.945,30.3852,0,0.000885,0,0
0:2:39.187,508.325,28.7649,0,0.000885,0,0
0:2:39.887,488.851,27.6618,0,0.000885,0,0
0:2:40.574,469.906,26.5931,0,0.000885,0,0
0:2:41.262,446.214,25.2486,0,0.000885,0,0
0:2:41.806,425.802,24.0972,0,0.000885,0,0