Folder: Experiment-Files (part 31)

File: DataFile2021-06-08_070835.csv
Test ID:,Date Tested:,Time:,Test Type:,Diameter Avg. (mm):,Cyl. Corr. Factor:,Height (mm):,Age (days):,Weight (kN):,Break Type:,Ramp Rate (MPa/s):,Load at Break (kN):,Stress at Break (MPa):
12,6/8/2021,07:08,Cylinder,100,1,200,0,3.6,3,0.23,213.14,27.14
Sample Time,Load (kN),Stress (MPa),Long. Strain,Trans. Strain,Chan1 Deflection (mm),Chan2 Deflection (mm)
0:0:17.172,5.21776,0.661897,0,0.000885,0,0
0:0:17.666,10.3243,1.3169,0,0.000885,0,0
0:0:18.163,9.73716,1.24106,0,0.000885,0,0
0:0:18.656,9.14999,1.16521,0,0.000885,0,0
0:0:19.153,9.44357,1.19969,0,0.000885,0,0
0:0:19.648,8.67848,1.10316,0,0.000885,0,0
0:0:20.144,9.14999,1.16521,0,0.000885,0,0
0:0:20.639,11.2006,1.42721,0,0.000885,0,0
0:0:21.137,12.0235,1.53064,0,0.000885,0,0
0:0:21.633,13.0199,1.65474,0,0.000885,0,0
0:0:22.130,14.2521,1.81332,0,0.000885,0,0
0:0:22.625,15.1328,1.92364,0,0.000885,0,0
0:0:23.131,15.6577,1.99258,0,0.000885,0,0
0:0:23.637,17.4771,2.22701,0,0.000885,0,0
0:0:24.139,18.8871,2.40627,0,0.000885,0,0
0:0:24.639,19.4699,2.48211,0,0.000885,0,0
0:0:25.137,20.88,2.66138,0,0.000885,0,0
0:0:25.634,21.5249,2.73722,0,0.000885,0,0
0:0:26.134,22.4635,2.86132,0,0.000885,0,0
0:0:26.632,23.5177,2.99232,0,0.000885,0,0
0:0:27.129,24.87,3.16469,0,0.000885,0,0
0:0:27.634,25.9821,3.30948,0,0.000885,0,0
0:0:28.141,27.3299,3.48185,0,0.000885,0,0
0:0:28.645,28.6199,3.64733,0,0.000885,0,0
0:0:29.144,29.9098,3.80591,0,0.000885,0,0
0:0:29.642,30.6171,3.89554,0,0.000885,0,0
0:0:30.138,31.0842,3.95759,0,0.000885,0,0
0:0:30.637,31.6135,4.02654,0,0.000885,0,0
0:0:31.132,32.3163,4.11617,0,0.000885,0,0
0:0:31.630,33.0191,4.2058,0,0.000885,0,0
0:0:32.128,34.6027,4.40575,0,0.000885,0,0
0:0:32.633,35.6614,4.54365,0,0.000885,0,0
0:0:33.138,36.3064,4.61949,0,0.000885,0,0
0:0:33.641,37.3028,4.75049,0,0.000885,0,0
0:0:34.142,38.357,4.88149,0,0.000885,0,0
0:0:34.640,39.1799,4.9918,0,0.000885,0,0
0:0:35.138,40.7012,5.18486,0,0.000885,0,0
0:0:35.635,41.2884,5.25381,0,0.000885,0,0
0:0:36.132,42.1691,5.37102,0,0.000885,0,0
0:0:36.631,43.4591,5.53649,0,0.000885,0,0
0:0:37.131,44.8069,5.70196,0,0.000885,0,0
0:0:37.632,45.3941,5.77781,0,0.000885,0,0
0:0:38.138,46.5684,5.92949,0,0.000885,0,0
0:0:38.643,47.3914,6.03291,0,0.000885,0,0
0:0:39.145,48.2098,6.13633,0,0.000885,0,0
0:0:39.641,48.9749,6.23286,0,0.000885,0,0
0:0:40.140,50.1448,6.38455,0,0.000885,0,0
0:0:40.637,50.9099,6.48107,0,0.000885,0,0
0:0:41.135,52.3155,6.66034,0,0.000885,0,0
0:0:41.631,52.9605,6.74307,0,0.000885,0,0
0:0:42.130,54.4284,6.92923,0,0.000885,0,0
0:0:42.629,54.9533,6.99818,0,0.000885,0,0
0:0:43.139,56.1277,7.14986,0,0.000885,0,0
0:0:43.642,57.2442,7.28776,0,0.000885,0,0
0:0:44.145,58.2984,7.42565,0,0.000885,0,0
0:0:44.643,59.0012,7.51529,0,0.000885,0,0
0:0:45.140,60.2912,7.67386,0,0.000885,0,0
0:0:45.638,60.9362,7.7566,0,0.000885,0,0
0:0:46.136,61.937,7.8876,0,0.000885,0,0
0:0:46.634,62.7555,7.99102,0,0.000885,0,0
0:0:47.133,64.3391,8.19097,0,0.000885,0,0
0:0:47.631,64.6905,8.23923,0,0.000885,0,0
0:0:48.138,65.9226,8.39092,0,0.000885,0,0
0:0:48.641,67.3327,8.57018,0,0.000885,0,0
0:0:49.147,67.9154,8.64603,0,0.000885,0,0
0:0:49.645,68.7962,8.75634,0,0.000885,0,0
0:0:50.143,69.6191,8.86666,0,0.000885,0,0
0:0:50.639,70.3798,8.96318,0,0.000885,0,0
0:0:51.137,71.6119,9.11487,0,0.000885,0,0
0:0:51.635,73.1377,9.31482,0,0.000885,0,0
0:0:52.135,73.7248,9.38376,0,0.000885,0,0
0:0:52.631,74.6056,9.50098,0,0.000885,0,0
0:0:53.138,76.1891,9.70092,0,0.000885,0,0
0:0:53.641,76.5984,9.75608,0,0.000885,0,0
0:0:54.146,77.4168,9.8595,0,0.000885,0,0
0:0:54.644,78.5334,9.9974,0,0.000885,0,0
0:0:55.142,79.5876,10.1353,0,0.000885,0,0
0:0:55.638,80.4683,10.2456,0,0.000885,0,0
0:0:56.137,81.6427,10.3973,0,0.000885,0,0
0:0:56.634,82.5812,10.5145,0,0.000885,0,0
0:0:57.131,83.5198,10.6317,0,0.000885,0,0
0:0:57.639,84.3383,10.7351,0,0.000885,0,0
0:0:58.144,85.6283,10.9006,0,0.000885,0,0
0:0:58.649,86.6869,11.0385,0,0.000885,0,0
0:0:59.147,87.6255,11.1557,0,0.000885,0,0
0:0:59.643,88.6219,11.2867,0,0.000885,0,0
0:1:0.140,89.734,11.4246,0,0.000885,0,0
0:1:0.637,90.6725,11.5418,0,0.000885,0,0
0:1:1.134,90.9083,11.5763,0,0.000885,0,0
0:1:1.634,92.6075,11.79,0,0.000885,0,0
0:1:2.130,93.1947,11.8659,0,0.000885,0,0
0:1:2.634,93.9598,11.9624,0,0.000885,0,0
0:1:3.141,95.6012,12.1692,0,0.000885,0,0
0:1:3.646,96.0104,12.2244,0,0.000885,0,0
0:1:4.146,97.2426,12.383,0,0.000885,0,0
0:1:4.645,98.0032,12.4795,0,0.000885,0,0
0:1:5.143,99.0619,12.6105,0,0.000885,0,0
0:1:5.641,99.9426,12.7277,0,0.000885,0,0
0:1:6.139,101.113,12.8725,0,0.000885,0,0
0:1:6.637,102.638,13.0656,0,0.000885,0,0
0:1:7.136,103.813,13.2172,0,0.000885,0,0
0:1:7.633,103.986,13.2379,0,0.000885,0,0
0:1:8.139,105.276,13.4034,0,0.000885,0,0
0:1:8.645,106.335,13.5413,0,0.000885,0,0
0:1:9.148,106.566,13.5689,0,0.000885,0,0
0:1:9.646,107.74,13.7206,0,0.000885,0,0
0:1:10.145,109.15,13.8998,0,0.000885,0,0
0:1:10.642,110.378,14.0515,0,0.000885,0,0
0:1:11.141,110.965,14.1274,0,0.000885,0,0
0:1:11.638,112.549,14.3273,0,0.000885,0,0
0:1:12.134,112.549,14.3273,0,0.000885,0,0
0:1:12.631,113.723,14.479,0,0.000885,0,0
0:1:13.137,115.013,14.6445,0,0.000885,0,0
0:1:13.642,115.952,14.7617,0,0.000885,0,0
0:1:14.147,117.068,14.9065,0,0.000885,0,0
0:1:14.645,118.123,15.0375,0,0.000885,0,0
0:1:15.143,119.119,15.1685,0,0.000885,0,0
0:1:15.639,119.528,15.2167,0,0.000885,0,0
0:1:16.138,120.996,15.4029,0,0.000885,0,0
0:1:16.636,122.344,15.5753,0,0.000885,0,0
0:1:17.133,122.286,15.5684,0,0.000885,0,0
0:1:17.639,123.754,15.7545,0,0.000885,0,0
0:1:18.146,124.693,15.8786,0,0.000885,0,0
0:1:18.649,125.747,16.0096,0,0.000885,0,0
0:1:19.146,126.57,16.113,0,0.000885,0,0
0:1:19.644,127.624,16.2509,0,0.000885,0,0
0:1:20.142,128.914,16.4164,0,0.000885,0,0
0:1:20.641,129.617,16.506,0,0.000885,0,0
0:1:21.138,130.497,16.6164,0,0.000885,0,0
0:1:21.635,131.085,16.6922,0,0.000885,0,0
0:1:22.134,132.61,16.8853,0,0.000885,0,0
0:1:22.633,134.132,17.0783,0,0.000885,0,0
0:1:23.141,134.777,17.1611,0,0.000885,0,0
0:1:23.645,135.778,17.2852,0,0.000885,0,0
0:1:24.151,136.774,17.4162,0,0.000885,0,0
0:1:24.648,137.712,17.5334,0,0.000885,0,0
0:1:25.146,138.237,17.6023,0,0.000885,0,0
0:1:25.642,139.47,17.7609,0,0.000885,0,0
0:1:26.140,140.115,17.8367,0,0.000885,0,0
0:1:26.637,140.995,17.9539,0,0.000885,0,0
0:1:27.135,142.637,18.1608,0,0.000885,0,0
0:1:27.632,143.753,18.3056,0,0.000885,0,0
0:1:28.139,144.634,18.4159,0,0.000885,0,0
0:1:28.643,144.985,18.4573,0,0.000885,0,0
0:1:29.147,145.982,18.5883,0,0.000885,0,0
0:1:29.645,147.33,18.7606,0,0.000885,0,0
0:1:30.143,148.855,18.9537,0,0.000885,0,0
0:1:30.639,149.616,19.0502,0,0.000885,0,0
0:1:31.136,150.261,19.133,0,0.000885,0,0
0:1:31.632,151.262,19.2571,0,0.000885,0,0
0:1:32.129,152.08,19.3605,0,0.000885,0,0
0:1:32.638,153.37,19.526,0,0.000885,0,0
0:1:33.144,154.309,19.6501,0,0.000885,0,0
0:1:33.648,155.012,19.7397,0,0.000885,0,0
0:1:34.146,156.302,19.8983,0,0.000885,0,0
0:1:34.644,157.418,20.0431,0,0.000885,0,0
0:1:35.141,158.65,20.2016,0,0.000885,0,0
0:1:35.640,159.117,20.2568,0,0.000885,0,0
0:1:36.137,159.762,20.3395,0,0.000885,0,0
0:1:36.637,160.879,20.4843,0,0.000885,0,0
0:1:37.134,162.111,20.6429,0,0.000885,0,0
0:1:37.636,162.992,20.7532,0,0.000885,0,0
0:1:38.145,164.046,20.8842,0,0.000885,0,0
0:1:38.647,164.513,20.9463,0,0.000885,0,0
0:1:39.149,165.687,21.098,0,0.000885,0,0
0:1:39.649,167.213,21.291,0,0.000885,0,0
0:1:40.145,167.974,21.3875,0,0.000885,0,0
0:1:40.645,169.148,21.5392,0,0.000885,0,0
0:1:41.143,170.029,21.6495,0,0.000885,0,0
0:1:41.640,171.199,21.8012,0,0.000885,0,0
0:1:42.138,171.844,21.8771,0,0.000885,0,0
0:1:42.636,173.018,22.0287,0,0.000885,0,0
0:1:43.142,173.783,22.1253,0,0.000885,0,0
0:1:43.648,174.659,22.2356,0,0.000885,0,0
0:1:44.152,175.776,22.3804,0,0.000885,0,0
0:1:44.648,177.008,22.539,0,0.000885,0,0
0:1:45.148,177.653,22.6217,0,0.000885,0,0
0:1:45.645,178.414,22.7182,0,0.000885,0,0
0:1:46.144,179.766,22.8906,0,0.000885,0,0
0:1:46.639,180.469,22.9802,0,0.000885,0,0
0:1:47.138,181.407,23.0974,0,0.000885,0,0
0:1:47.635,182.519,23.2422,0,0.000885,0,0
0:1:48.141,183.285,23.3388,0,0.000885,0,0
0:1:48.648,184.806,23.5318,0,0.000885,0,0
0:1:49.152,185.629,23.6352,0,0.000885,0,0
0:1:49.649,186.977,23.8076,0,0.000885,0,0
0:1:50.146,187.39,23.8559,0,0.000885,0,0
0:1:50.643,187.973,23.9317,0,0.000885,0,0
0:1:51.140,189.383,24.111,0,0.000885,0,0
0:1:51.638,189.85,24.173,0,0.000885,0,0
0:1:52.136,191.202,24.3454,0,0.000885,0,0
0:1:52.641,191.905,24.435,0,0.000885,0,0
0:1:53.146,193.08,24.5867,0,0.000885,0,0
0:1:53.646,194.427,24.7522,0,0.000885,0,0
0:1:54.142,195.188,24.8556,0,0.000885,0,0
0:1:54.637,195.953,24.9521,0,0.000885,0,0
0:1:55.132,196.714,25.0487,0,0.000885,0,0
0:1:55.626,198.119,25.2279,0,0.000885,0,0
0:1:56.119,199.178,25.3589,0,0.000885,0,0
0:1:56.625,200.174,25.4899,0,0.000885,0,0
0:1:57.118,201.171,25.614,0,0.000885,0,0
0:1:57.626,201.642,25.6761,0,0.000885,0,0
0:1:58.130,202.639,25.8002,0,0.000885,0,0
0:1:58.633,204.102,25.9863,0,0.000885,0,0
0:1:59.132,204.809,26.076,0,0.000885,0,0
0:1:59.626,205.864,26.2139,0,0.000885,0,0
0:2:0.123,206.976,26.3518,0,0.000885,0,0
0:2:0.625,207.621,26.4345,0,0.000885,0,0
0:2:1.128,208.386,26.531,0,0.000885,0,0
0:2:1.622,209.146,26.6276,0,0.000885,0,0
0:2:2.115,210.027,26.7448,0,0.000885,0,0
0:2:2.617,210.908,26.8551,0,0.000885,0,0
0:2:3.119,211.259,26.8964,0,0.000885,0,0
0:2:3.623,212.02,26.993,0,0.000885,0,0
0:2:4.125,213.488,27.1791,0,0.000885,0,0
0:2:4.628,212.901,27.1102,0,0.000885,0,0
0:2:5.122,212.843,27.1033,0,0.000885,0,0
0:2:5.624,212.314,27.0343,0,0.000885,0,0
0:2:6.126,211.259,26.8964,0,0.000885,0,0
0:2:6.617,209.734,26.7034,0,0.000885,0,0
0:2:7.109,207.856,26.4621,0,0.000885,0,0
0:2:7.609,203.635,25.9243,0,0.000885,0,0
0:2:8.112,199.529,25.4072,0,0.000885,0,0
0:2:8.611,192.608,24.5247,0,0.000885,0,0
0:2:9.128,188.035,23.9386,0,0.000885,0,0
0:2:9.624,185.277,23.587,0,0.000885,0,0
0:2:10.117,181.817,23.1526,0,0.000885,0,0
0:2:10.612,179.117,22.8079,0,0.000885,0,0
0:2:11.109,177.182,22.5596,0,0.000885,0,0
0:2:11.616,174.014,22.1597,0,0.000885,0,0
0:2:12.112,170.029,21.6495,0,0.000885,0,0
0:2:12.616,165.042,21.0152,0,0.000885,0,0
0:2:13.124,158.824,20.2223,0,0.000885,0,0
0:2:13.556,151.026,19.2295,0,0.000885,0,0

File: DataFile2021-06-08_071356.csv
Test ID:,Date Tested:,Time:,Test Type:,Diameter Avg. (mm):,Cyl. Corr. Factor:,Height (mm):,Age (days):,Weight (kN):,Break Type:,Ramp Rate (MPa/s):,Load at Break (kN):,Stress at Break (MPa):
12,6/8/2021,07:13,Cylinder,100,1,200,0,3.6,3,0.23,274.07,34.89
Sample Time,Load (kN),Stress (MPa),Long. Strain,Trans. Strain,Chan1 Deflection (mm),Chan2 Deflection (mm)
0:0:22.876,7.68208,0.979056,0,0.000885,0,0
0:0:23.470,14.3678,1.82711,0,0.000885,0,0
0:0:24.065,13.0199,1.65474,0,0.000885,0,0
0:0:24.660,12.6685,1.61337,0,0.000885,0,0
0:0:25.258,12.2015,1.55132,0,0.000885,0,0
0:0:25.852,12.4906,1.59269,0,0.000885,0,0
0:0:26.447,12.1392,1.54443,0,0.000885,0,0
0:0:27.041,13.4915,1.71679,0,0.000885,0,0
0:0:27.634,13.0778,1.66853,0,0.000885,0,0
0:0:28.230,14.8971,1.89606,0,0.000885,0,0
0:0:28.838,16.0714,2.04774,0,0.000885,0,0
0:0:29.445,17.655,2.24769,0,0.000885,0,0
0:0:30.050,18.945,2.41317,0,0.000885,0,0
0:0:30.647,21.1735,2.69585,0,0.000885,0,0
0:0:31.242,22.2278,2.82685,0,0.000885,0,0
0:0:31.843,23.1663,2.95096,0,0.000885,0,0
0:0:32.440,24.3407,3.09575,0,0.000885,0,0
0:0:33.039,24.87,3.16469,0,0.000885,0,0
0:0:33.649,26.3913,3.35775,0,0.000885,0,0
0:0:34.254,27.3877,3.48875,0,0.000885,0,0
0:0:34.853,28.7978,3.66801,0,0.000885,0,0
0:0:35.450,29.9098,3.80591,0,0.000885,0,0
0:0:36.050,31.2621,3.97827,0,0.000885,0,0
0:0:36.646,32.0227,4.0748,0,0.000885,0,0
0:0:37.241,33.4907,4.26096,0,0.000885,0,0
0:0:37.839,34.5449,4.39886,0,0.000885,0,0
0:0:38.447,35.6614,4.54365,0,0.000885,0,0
0:0:39.055,36.9514,4.70222,0,0.000885,0,0
0:0:39.660,38.1835,4.8608,0,0.000885,0,0
0:0:40.256,39.9406,5.08833,0,0.000885,0,0
0:0:40.851,40.5277,5.15728,0,0.000885,0,0
0:0:41.450,41.2306,5.24691,0,0.000885,0,0
0:0:42.048,42.6407,5.42617,0,0.000885,0,0
0:0:42.647,43.9306,5.59165,0,0.000885,0,0
0:0:43.245,45.4519,5.7847,0,0.000885,0,0
0:0:43.855,46.3905,5.90881,0,0.000885,0,0
0:0:44.459,47.507,6.0467,0,0.000885,0,0
0:0:45.062,48.9749,6.23286,0,0.000885,0,0
0:0:45.660,50.087,6.37765,0,0.000885,0,0
0:0:46.255,51.0255,6.49486,0,0.000885,0,0
0:0:46.850,52.2577,6.65344,0,0.000885,0,0
0:0:47.448,53.7256,6.8396,0,0.000885,0,0
0:0:48.045,54.5441,6.94302,0,0.000885,0,0
0:0:48.654,56.012,7.12918,0,0.000885,0,0
0:0:49.262,57.0084,7.26018,0,0.000885,0,0
0:0:49.865,58.0626,7.39118,0,0.000885,0,0
0:0:50.460,59.3526,7.55665,0,0.000885,0,0
0:0:51.059,60.4113,7.69455,0,0.000885,0,0
0:0:51.659,61.937,7.8876,0,0.000885,0,0
0:0:52.259,62.8712,8.00481,0,0.000885,0,0
0:0:52.855,64.0455,8.1565,0,0.000885,0,0
0:0:53.455,65.1042,8.2875,0,0.000885,0,0
0:0:54.064,66.452,8.45987,0,0.000885,0,0
0:0:54.669,67.2126,8.55639,0,0.000885,0,0
0:0:55.268,68.6227,8.73566,0,0.000885,0,0
0:0:55.864,70.2641,8.94939,0,0.000885,0,0
0:0:56.460,71.2605,9.0735,0,0.000885,0,0
0:0:57.056,72.2569,9.19761,0,0.000885,0,0
0:0:57.654,73.4312,9.34929,0,0.000885,0,0
0:0:58.252,74.312,9.45961,0,0.000885,0,0
0:0:58.862,75.9534,9.67334,0,0.000885,0,0
0:0:59.467,77.0654,9.81124,0,0.000885,0,0
0:1:0.070,78.4177,9.98361,0,0.000885,0,0
0:1:0.666,79.5876,10.1353,0,0.000885,0,0
0:1:1.265,80.5262,10.2525,0,0.000885,0,0
0:1:1.862,81.5226,10.3766,0,0.000885,0,0
0:1:2.462,82.9326,10.5559,0,0.000885,0,0
0:1:3.059,83.8712,10.68,0,0.000885,0,0
0:1:3.668,85.219,10.8523,0,0.000885,0,0
0:1:4.274,86.3934,10.9971,0,0.000885,0,0
0:1:4.874,87.6255,11.1557,0,0.000885,0,0
0:1:5.470,88.5018,11.266,0,0.000885,0,0
0:1:6.069,89.6183,11.4108,0,0.000885,0,0
0:1:6.667,91.2597,11.6177,0,0.000885,0,0
0:1:7.262,92.3139,11.7556,0,0.000885,0,0
0:1:7.860,93.6662,11.9279,0,0.000885,0,0
0:1:8.464,95.1875,12.121,0,0.000885,0,0
0:1:9.071,96.0104,12.2244,0,0.000885,0,0
0:1:9.675,96.8912,12.3347,0,0.000885,0,0
0:1:10.273,97.8876,12.4657,0,0.000885,0,0
0:1:10.870,99.2932,12.645,0,0.000885,0,0
0:1:11.465,100.703,12.8242,0,0.000885,0,0
0:1:12.062,101.878,12.969,0,0.000885,0,0
0:1:12.659,102.696,13.0725,0,0.000885,0,0
0:1:13.258,104.4,13.2931,0,0.000885,0,0
0:1:13.868,105.57,13.4448,0,0.000885,0,0
0:1:14.472,106.157,13.5137,0,0.000885,0,0
0:1:15.074,107.856,13.7344,0,0.000885,0,0
0:1:15.672,108.737,13.8447,0,0.000885,0,0
0:1:16.271,109.853,13.9895,0,0.000885,0,0
0:1:16.868,111.201,14.1618,0,0.000885,0,0
0:1:17.468,112.727,14.3549,0,0.000885,0,0
0:1:18.062,113.665,14.4721,0,0.000885,0,0
0:1:18.666,114.662,14.5962,0,0.000885,0,0
0:1:19.274,116.01,14.7686,0,0.000885,0,0
0:1:19.880,116.833,14.8789,0,0.000885,0,0
0:1:20.477,118.065,15.0306,0,0.000885,0,0
0:1:21.075,119.355,15.196,0,0.000885,0,0
0:1:21.671,120.938,15.396,0,0.000885,0,0
0:1:22.266,122.344,15.5753,0,0.000885,0,0
0:1:22.862,122.989,15.658,0,0.000885,0,0
0:1:23.469,123.927,15.7821,0,0.000885,0,0
0:1:24.076,125.395,15.9683,0,0.000885,0,0
0:1:24.681,126.507,16.1062,0,0.000885,0,0
0:1:25.276,127.797,16.2716,0,0.000885,0,0
0:1:25.873,128.798,16.3957,0,0.000885,0,0
0:1:26.470,129.737,16.5198,0,0.000885,0,0
0:1:27.069,131.32,16.7198,0,0.000885,0,0
0:1:27.666,132.317,16.8439,0,0.000885,0,0
0:1:28.266,133.607,17.0094,0,0.000885,0,0
0:1:28.875,134.719,17.1542,0,0.000885,0,0
0:1:29.479,135.951,17.3127,0,0.000885,0,0
0:1:30.080,136.947,17.4368,0,0.000885,0,0
0:1:30.678,138.593,17.6437,0,0.000885,0,0
0:1:31.276,139.821,17.8023,0,0.000885,0,0
0:1:31.874,140.528,17.8919,0,0.000885,0,0
0:1:32.470,142.112,18.0918,0,0.000885,0,0
0:1:33.064,142.521,18.147,0,0.000885,0,0
0:1:33.672,143.989,18.3332,0,0.000885,0,0
0:1:34.278,145.159,18.4848,0,0.000885,0,0
0:1:34.884,146.627,18.671,0,0.000885,0,0
0:1:35.482,147.623,18.7951,0,0.000885,0,0
0:1:36.078,149.265,19.002,0,0.000885,0,0
0:1:36.676,150.203,19.1261,0,0.000885,0,0
0:1:37.271,151.262,19.2571,0,0.000885,0,0
0:1:37.869,152.432,19.4087,0,0.000885,0,0
0:1:38.478,153.722,19.5742,0,0.000885,0,0
0:1:39.084,154.602,19.6845,0,0.000885,0,0
0:1:39.688,155.719,19.8293,0,0.000885,0,0
0:1:40.283,156.947,19.981,0,0.000885,0,0
0:1:40.881,158.65,20.2016,0,0.000885,0,0
0:1:41.480,159.353,20.2913,0,0.000885,0,0
0:1:42.080,160.643,20.4567,0,0.000885,0,0
0:1:42.675,161.817,20.6015,0,0.000885,0,0
0:1:43.274,162.756,20.7256,0,0.000885,0,0
0:1:43.884,164.282,20.9187,0,0.000885,0,0
0:1:44.490,165.22,21.0359,0,0.000885,0,0
0:1:45.090,166.626,21.2152,0,0.000885,0,0
0:1:45.688,167.507,21.3255,0,0.000885,0,0
0:1:46.286,169.148,21.5392,0,0.000885,0,0
0:1:46.881,170.674,21.7323,0,0.000885,0,0
0:1:47.478,171.786,21.8702,0,0.000885,0,0
0:1:48.074,172.96,22.0219,0,0.000885,0,0
0:1:48.682,173.605,22.1046,0,0.000885,0,0
0:1:49.290,174.486,22.2149,0,0.000885,0,0
0:1:49.895,175.482,22.3459,0,0.000885,0,0
0:1:50.510,177.533,22.601,0,0.000885,0,0
0:1:51.125,178.182,22.6838,0,0.000885,0,0
0:1:51.725,179.882,22.9044,0,0.000885,0,0
0:1:52.323,180.469,22.9802,0,0.000885,0,0
0:1:52.922,182.052,23.1802,0,0.000885,0,0
0:1:53.520,183.107,23.3112,0,0.000885,0,0
0:1:54.129,184.397,23.4766,0,0.000885,0,0
0:1:54.734,185.513,23.6214,0,0.000885,0,0
0:1:55.334,186.803,23.7869,0,0.000885,0,0
0:1:55.932,187.679,23.8972,0,0.000885,0,0
0:1:56.528,188.68,24.0213,0,0.000885,0,0
0:1:57.125,190.379,24.242,0,0.000885,0,0
0:1:57.721,191.434,24.373,0,0.000885,0,0
0:1:58.324,193.017,24.5729,0,0.000885,0,0
0:1:58.928,194.134,24.7177,0,0.000885,0,0
0:1:59.530,195.246,24.8625,0,0.000885,0,0
0:2:0.124,196.069,24.9659,0,0.000885,0,0
0:2:0.712,196.892,25.0693,0,0.000885,0,0
0:2:1.305,198.297,25.2486,0,0.000885,0,0
0:2:1.895,199.529,25.4072,0,0.000885,0,0
0:2:2.488,200.641,25.5451,0,0.000885,0,0
0:2:3.082,202.167,25.7381,0,0.000885,0,0
0:2:3.687,202.99,25.8484,0,0.000885,0,0
0:2:4.289,204.925,26.0898,0,0.000885,0,0
0:2:4.887,205.922,26.2208,0,0.000885,0,0
0:2:5.479,207.212,26.3862,0,0.000885,0,0
0:2:6.071,207.563,26.4276,0,0.000885,0,0
0:2:6.665,208.795,26.5862,0,0.000885,0,0
0:2:7.257,209.912,26.7241,0,0.000885,0,0
0:2:7.851,211.259,26.8964,0,0.000885,0,0
0:2:8.449,211.847,26.9723,0,0.000885,0,0
0:2:9.053,213.666,27.2067,0,0.000885,0,0
0:2:9.655,214.894,27.3584,0,0.000885,0,0
0:2:10.251,216.01,27.5032,0,0.000885,0,0
0:2:10.844,217.006,27.6273,0,0.000885,0,0
0:2:11.435,218.59,27.8341,0,0.000885,0,0
0:2:12.028,219.177,27.9031,0,0.000885,0,0
0:2:12.621,220.583,28.0823,0,0.000885,0,0
0:2:13.225,221.935,28.2547,0,0.000885,0,0
0:2:13.829,223.167,28.4133,0,0.000885,0,0
0:2:14.431,223.928,28.5098,0,0.000885,0,0
0:2:15.028,225.102,28.6615,0,0.000885,0,0
0:2:15.620,226.334,28.8201,0,0.000885,0,0
0:2:16.225,227.74,28.9993,0,0.000885,0,0
0:2:16.817,229.03,29.1579,0,0.000885,0,0
0:2:17.412,230.556,29.3579,0,0.000885,0,0
0:2:18.013,231.494,29.4751,0,0.000885,0,0
0:2:18.611,232.491,29.5992,0,0.000885,0,0
0:2:19.216,233.078,29.675,0,0.000885,0,0
0:2:19.820,234.955,29.9164,0,0.000885,0,0
0:2:20.424,236.009,30.0474,0,0.000885,0,0
0:2:21.024,237.241,30.2059,0,0.000885,0,0
0:2:21.615,238.589,30.3783,0,0.000885,0,0
0:2:22.206,239.47,30.4886,0,0.000885,0,0
0:2:22.800,240.466,30.6196,0,0.000885,0,0
0:2:23.403,241.756,30.7782,0,0.000885,0,0
0:2:24.005,242.931,30.9299,0,0.000885,0,0
0:2:24.604,244.043,31.0747,0,0.000885,0,0
0:2:25.212,244.981,31.1919,0,0.000885,0,0
0:2:25.807,246.04,31.3298,0,0.000885,0,0
0:2:26.410,247.681,31.5366,0,0.000885,0,0
0:2:27.006,248.793,31.6745,0,0.000885,0,0
0:2:27.616,250.146,31.8469,0,0.000885,0,0
0:2:28.215,251.084,31.971,0,0.000885,0,0
0:2:28.818,252.432,32.1434,0,0.000885,0,0
0:2:29.421,253.722,32.3019,0,0.000885,0,0
0:2:30.013,255.012,32.4674,0,0.000885,0,0
0:2:30.628,255.893,32.5846,0,0.000885,0,0
0:2:31.218,257.298,32.757,0,0.000885,0,0
0:2:31.809,258.709,32.9363,0,0.000885,0,0
0:2:32.402,260.114,33.1155,0,0.000885,0,0
0:2:32.997,260.408,33.1569,0,0.000885,0,0
0:2:33.599,261.111,33.2465,0,0.000885,0,0
0:2:34.202,262.93,33.474,0,0.000885,0,0
0:2:34.799,263.869,33.5982,0,0.000885,0,0
0:2:35.409,264.456,33.674,0,0.000885,0,0
0:2:36.009,265.688,33.8257,0,0.000885,0,0
0:2:36.603,266.858,33.9774,0,0.000885,0,0
0:2:37.217,267.681,34.0808,0,0.000885,0,0
0:2:37.823,268.797,34.2256,0,0.000885,0,0
0:2:38.425,270.025,34.3842,0,0.000885,0,0
0:2:39.031,271.141,34.522,0,0.000885,0,0
0:2:39.632,272.196,34.6599,0,0.000885,0,0
0:2:40.227,272.961,34.7565,0,0.000885,0,0
0:2:40.830,273.837,34.8668,0,0.000885,0,0
0:2:41.425,274.073,34.8944,0,0.000885,0,0
0:2:42.014,273.721,34.853,0,0.000885,0,0
0:2:42.604,271.729,34.5979,0,0.000885,0,0
0:2:43.202,267.329,34.0394,0,0.000885,0,0
0:2:43.804,259.354,33.019,0,0.000885,0,0
0:2:44.404,243.576,31.0126,0,0.000885,0,0
0:2:44.996,227.976,29.0269,0,0.000885,0,0
0:2:45.586,216.655,27.5859,0,0.000885,0,0
0:2:46.177,202.287,25.7588,0,0.000885,0,0
0:2:46.452,195.188,24.8556,0,0.000885,0,0