Folder: Experiment-Files (part 26)

File: DataFile2021-06-08_052343.csv
Test ID:,Date Tested:,Time:,Test Type:,Diameter Avg. (mm):,Cyl. Corr. Factor:,Height (mm):,Age (days):,Weight (kN):,Break Type:,Ramp Rate (MPa/s):,Load at Break (kN):,Stress at Break (MPa):
12,6/8/2021,05:23,Cylinder,150,1,300,0,3.6,1,0.24,829.22,46.93
Sample Time,Load (kN),Stress (MPa),Long. Strain,Trans. Strain,Chan1 Deflection (mm),Chan2 Deflection (mm)
0:0:16.853,8.85641,0.503317,0,0.000885,0,0
0:0:17.650,16.1293,0.910108,0,0.000885,0,0
0:0:18.440,15.5421,0.882529,0,0.000885,0,0
0:0:19.234,16.365,0.923897,0,0.000885,0,0
0:0:20.027,18.5936,1.0549,0,0.000885,0,0
0:0:20.824,21.7029,1.22727,0,0.000885,0,0
0:0:21.619,26.0399,1.47548,0,0.000885,0,0
0:0:22.419,31.0263,1.75816,0,0.000885,0,0
0:0:23.229,34.367,1.94432,0,0.000885,0,0
0:0:24.037,37.3606,2.11669,0,0.000885,0,0
0:0:24.832,41.1727,2.33043,0,0.000885,0,0
0:0:25.627,44.1619,2.4959,0,0.000885,0,0
0:0:26.425,48.2677,2.73032,0,0.000885,0,0
0:0:27.226,51.5549,2.91648,0,0.000885,0,0
0:0:28.036,55.1313,3.11643,0,0.000885,0,0
0:0:28.836,58.7699,3.32327,0,0.000885,0,0
0:0:29.636,62.4041,3.53012,0,0.000885,0,0
0:0:30.429,65.4556,3.70248,0,0.000885,0,0
0:0:31.228,68.7384,3.88864,0,0.000885,0,0
0:0:32.023,72.8441,4.12306,0,0.000885,0,0
0:0:32.835,75.9534,4.29543,0,0.000885,0,0
0:0:33.642,80.1169,4.53675,0,0.000885,0,0
0:0:34.436,82.8748,4.68843,0,0.000885,0,0
0:0:35.235,86.8026,4.90907,0,0.000885,0,0
0:0:36.030,90.5569,5.1228,0,0.000885,0,0
0:0:36.831,93.8975,5.31586,0,0.000885,0,0
0:0:37.633,96.949,5.48823,0,0.000885,0,0
0:0:38.442,101.113,5.72265,0,0.000885,0,0
0:0:39.241,103.986,5.88123,0,0.000885,0,0
0:0:40.039,108.212,6.12254,0,0.000885,0,0
0:0:40.835,110.734,6.26733,0,0.000885,0,0
0:0:41.628,114.426,6.47418,0,0.000885,0,0
0:0:42.437,118.652,6.71549,0,0.000885,0,0
0:0:43.245,122.695,6.94302,0,0.000885,0,0
0:0:44.046,125.631,7.10849,0,0.000885,0,0
0:0:44.838,129.443,7.32223,0,0.000885,0,0
0:0:45.639,132.784,7.51529,0,0.000885,0,0
0:0:46.433,136.538,7.72902,0,0.000885,0,0
0:0:47.233,139.705,7.90829,0,0.000885,0,0
0:0:48.043,143.282,8.10823,0,0.000885,0,0
0:0:48.845,146.92,8.31508,0,0.000885,0,0
0:0:49.643,150.145,8.49434,0,0.000885,0,0
0:0:50.439,153.664,8.69429,0,0.000885,0,0
0:0:51.239,157.712,8.92182,0,0.000885,0,0
0:0:52.033,161.524,9.14245,0,0.000885,0,0
0:0:52.843,164.513,9.30792,0,0.000885,0,0
0:0:53.652,167.858,9.50098,0,0.000885,0,0
0:0:54.447,171.728,9.71471,0,0.000885,0,0
0:0:55.248,175.304,9.92156,0,0.000885,0,0
0:0:56.042,179.294,10.1491,0,0.000885,0,0
0:0:56.841,182.11,10.3077,0,0.000885,0,0
0:0:57.646,186.452,10.549,0,0.000885,0,0
0:0:58.453,189.912,10.7489,0,0.000885,0,0
0:0:59.253,192.021,10.8661,0,0.000885,0,0
0:1:0.043,195.953,11.0868,0,0.000885,0,0
0:1:0.835,199.996,11.3143,0,0.000885,0,0
0:1:1.624,203.226,11.5005,0,0.000885,0,0
0:1:2.419,207.799,11.7556,0,0.000885,0,0
0:1:3.223,211.317,11.9555,0,0.000885,0,0
0:1:4.020,213.955,12.1072,0,0.000885,0,0
0:1:4.814,217.767,12.3209,0,0.000885,0,0
0:1:5.602,220.761,12.4933,0,0.000885,0,0
0:1:6.395,224.689,12.7139,0,0.000885,0,0
0:1:7.191,227.74,12.8863,0,0.000885,0,0
0:1:7.995,231.73,13.1138,0,0.000885,0,0
0:1:8.795,235.48,13.3276,0,0.000885,0,0
0:1:9.585,238.767,13.5137,0,0.000885,0,0
0:1:10.376,242.108,13.6999,0,0.000885,0,0
0:1:11.196,245.804,13.9067,0,0.000885,0,0
0:1:11.990,249.265,14.1067,0,0.000885,0,0
0:1:12.795,253.193,14.3273,0,0.000885,0,0
0:1:13.594,256.244,14.4997,0,0.000885,0,0
0:1:14.382,259.585,14.6927,0,0.000885,0,0
0:1:15.182,262.694,14.8651,0,0.000885,0,0
0:1:15.982,266.684,15.0926,0,0.000885,0,0
0:1:16.791,269.616,15.2581,0,0.000885,0,0
0:1:17.596,273.192,15.458,0,0.000885,0,0
0:1:18.399,277.827,15.72,0,0.000885,0,0
0:1:19.191,281.466,15.9269,0,0.000885,0,0
0:1:19.991,285.158,16.1337,0,0.000885,0,0
0:1:20.799,288.267,16.313,0,0.000885,0,0
0:1:21.591,291.492,16.4923,0,0.000885,0,0
0:1:22.382,295.011,16.6922,0,0.000885,0,0
0:1:23.188,298.823,16.9128,0,0.000885,0,0
0:1:23.992,302.283,17.1059,0,0.000885,0,0
0:1:24.786,305.508,17.2852,0,0.000885,0,0
0:1:25.594,309.383,17.5058,0,0.000885,0,0
0:1:26.383,313.137,17.7195,0,0.000885,0,0
0:1:27.183,316.42,17.9057,0,0.000885,0,0
0:1:27.988,319.703,18.0918,0,0.000885,0,0
0:1:28.791,323.221,18.2918,0,0.000885,0,0
0:1:29.586,326.918,18.4986,0,0.000885,0,0
0:1:30.392,330.908,18.7262,0,0.000885,0,0
0:1:31.186,334.426,18.9261,0,0.000885,0,0
0:1:31.992,337.358,19.0916,0,0.000885,0,0
0:1:32.798,341.054,19.2984,0,0.000885,0,0
0:1:33.597,344.337,19.4846,0,0.000885,0,0
0:1:34.386,348.265,19.7052,0,0.000885,0,0
0:1:35.184,352.139,19.9258,0,0.000885,0,0
0:1:35.996,355.364,20.112,0,0.000885,0,0
0:1:36.794,358.94,20.312,0,0.000885,0,0
0:1:37.598,362.228,20.4981,0,0.000885,0,0
0:1:38.400,365.92,20.705,0,0.000885,0,0
0:1:39.195,369.674,20.9187,0,0.000885,0,0
0:1:39.990,373.019,21.1117,0,0.000885,0,0
0:1:40.793,375.95,21.2772,0,0.000885,0,0
0:1:41.593,379.469,21.4703,0,0.000885,0,0
0:1:42.395,383.103,21.6771,0,0.000885,0,0
0:1:43.200,386.8,21.8909,0,0.000885,0,0
0:1:43.997,390.905,22.1184,0,0.000885,0,0
0:1:44.788,394.544,22.3252,0,0.000885,0,0
0:1:45.584,397.942,22.5183,0,0.000885,0,0
0:1:46.389,401.581,22.7251,0,0.000885,0,0
0:1:47.176,405.629,22.9526,0,0.000885,0,0
0:1:47.982,408.267,23.1043,0,0.000885,0,0
0:1:48.783,411.901,23.3112,0,0.000885,0,0
0:1:49.594,415.713,23.5249,0,0.000885,0,0
0:1:50.394,418.297,23.6697,0,0.000885,0,0
0:1:51.194,421.874,23.8765,0,0.000885,0,0
0:1:51.983,425.979,24.1041,0,0.000885,0,0
0:1:52.787,428.733,24.2627,0,0.000885,0,0
0:1:53.589,432.372,24.4695,0,0.000885,0,0
0:1:54.387,436.713,24.7108,0,0.000885,0,0
0:1:55.179,440.934,24.9521,0,0.000885,0,0
0:1:55.989,443.986,25.1245,0,0.000885,0,0
0:1:56.797,447.736,25.3382,0,0.000885,0,0
0:1:57.602,450.32,25.483,0,0.000885,0,0
0:1:58.403,454.657,25.7312,0,0.000885,0,0
0:1:59.195,457.651,25.8967,0,0.000885,0,0
0:1:59.995,461.343,26.1036,0,0.000885,0,0
0:2:0.795,464.221,26.269,0,0.000885,0,0
0:2:1.595,467.855,26.4759,0,0.000885,0,0
0:2:2.389,470.964,26.6482,0,0.000885,0,0
0:2:3.192,475.128,26.8896,0,0.000885,0,0
0:2:3.999,479.118,27.1102,0,0.000885,0,0
0:2:4.800,482.049,27.2757,0,0.000885,0,0
0:2:5.587,486.035,27.5032,0,0.000885,0,0
0:2:6.387,489.553,27.7031,0,0.000885,0,0
0:2:7.189,493.486,27.9238,0,0.000885,0,0
0:2:7.996,497.298,28.1444,0,0.000885,0,0
0:2:8.793,499.82,28.2823,0,0.000885,0,0
0:2:9.603,503.454,28.4891,0,0.000885,0,0
0:2:10.393,506.857,28.6822,0,0.000885,0,0
0:2:11.184,510.433,28.8821,0,0.000885,0,0
0:2:11.991,514.014,29.089,0,0.000885,0,0
0:2:12.797,517.826,29.3027,0,0.000885,0,0
0:2:13.598,520.994,29.482,0,0.000885,0,0
0:2:14.390,524.57,29.6819,0,0.000885,0,0
0:2:15.185,528.676,29.9164,0,0.000885,0,0
0:2:15.977,532.021,30.1094,0,0.000885,0,0
0:2:16.767,535.655,30.3094,0,0.000885,0,0
0:2:17.560,539.231,30.5162,0,0.000885,0,0
0:2:18.365,542.105,30.6748,0,0.000885,0,0
0:2:19.162,545.45,30.8678,0,0.000885,0,0
0:2:19.954,549.729,31.1091,0,0.000885,0,0
0:2:20.742,552.896,31.2884,0,0.000885,0,0
0:2:21.533,556.299,31.4815,0,0.000885,0,0
0:2:22.334,560.583,31.7228,0,0.000885,0,0
0:2:23.134,563.981,31.9158,0,0.000885,0,0
0:2:23.926,566.623,32.0675,0,0.000885,0,0
0:2:24.714,570.026,32.2537,0,0.000885,0,0
0:2:25.508,574.363,32.5019,0,0.000885,0,0
0:2:26.302,577.824,32.6949,0,0.000885,0,0
0:2:27.104,581.285,32.8949,0,0.000885,0,0
0:2:27.907,584.394,33.0673,0,0.000885,0,0
0:2:28.707,588.615,33.3086,0,0.000885,0,0
0:2:29.494,591.547,33.474,0,0.000885,0,0
0:2:30.286,595.185,33.6809,0,0.000885,0,0
0:2:31.081,598.121,33.8464,0,0.000885,0,0
0:2:31.873,601.88,34.0601,0,0.000885,0,0
0:2:32.677,606.164,34.3014,0,0.000885,0,0
0:2:33.483,609.335,34.4807,0,0.000885,0,0
0:2:34.282,612.622,34.6668,0,0.000885,0,0
0:2:35.092,616.497,34.8875,0,0.000885,0,0
0:2:35.889,619.958,35.0805,0,0.000885,0,0
0:2:36.681,623.303,35.2736,0,0.000885,0,0
0:2:37.490,627.706,35.5218,0,0.000885,0,0
0:2:38.295,630.291,35.6666,0,0.000885,0,0
0:2:39.108,634.459,35.901,0,0.000885,0,0
0:2:39.903,637.159,36.0527,0,0.000885,0,0
0:2:40.694,640.855,36.2664,0,0.000885,0,0
0:2:41.491,644.378,36.4664,0,0.000885,0,0
0:2:42.292,648.253,36.6801,0,0.000885,0,0
0:2:43.100,651.833,36.887,0,0.000885,0,0
0:2:43.900,654.769,37.0524,0,0.000885,0,0
0:2:44.701,658.995,37.2937,0,0.000885,0,0
0:2:45.497,662.576,37.4937,0,0.000885,0,0
0:2:46.302,666.037,37.6867,0,0.000885,0,0
0:2:47.094,669.15,37.866,0,0.000885,0,0
0:2:47.906,673.67,38.1211,0,0.000885,0,0
0:2:48.712,676.192,38.2659,0,0.000885,0,0
0:2:49.503,679.595,38.459,0,0.000885,0,0
0:2:50.309,683.469,38.6796,0,0.000885,0,0
0:2:51.103,687.112,38.8795,0,0.000885,0,0
0:2:51.897,690.222,39.0588,0,0.000885,0,0
0:2:52.704,694.332,39.2932,0,0.000885,0,0
0:2:53.509,697.441,39.4656,0,0.000885,0,0
0:2:54.306,701.431,39.6931,0,0.000885,0,0
0:2:55.096,704.896,39.8862,0,0.000885,0,0
0:2:55.893,707.948,40.0585,0,0.000885,0,0
0:2:56.684,712.058,40.293,0,0.000885,0,0
0:2:57.492,715.697,40.4998,0,0.000885,0,0
0:2:58.297,718.281,40.6446,0,0.000885,0,0
0:2:59.092,721.92,40.8514,0,0.000885,0,0
0:2:59.895,726.203,41.0928,0,0.000885,0,0
0:3:0.689,729.726,41.2927,0,0.000885,0,0
0:3:1.485,732.426,41.4444,0,0.000885,0,0
0:3:2.293,736.594,41.6857,0,0.000885,0,0
0:3:3.104,740.527,41.9063,0,0.000885,0,0
0:3:3.901,743.462,42.0718,0,0.000885,0,0
0:3:4.698,746.692,42.2511,0,0.000885,0,0
0:3:5.490,751.153,42.5062,0,0.000885,0,0
0:3:6.283,753.733,42.651,0,0.000885,0,0
0:3:7.079,757.199,42.8509,0,0.000885,0,0
0:3:7.887,760.486,43.0371,0,0.000885,0,0
0:3:8.692,764.476,43.2577,0,0.000885,0,0
0:3:9.505,768.114,43.4645,0,0.000885,0,0
0:3:10.304,771.58,43.6645,0,0.000885,0,0
0:3:11.093,775.512,43.8851,0,0.000885,0,0
0:3:11.899,778.857,44.0713,0,0.000885,0,0
0:3:12.711,781.793,44.2437,0,0.000885,0,0
0:3:13.512,785.903,44.4712,0,0.000885,0,0
0:3:14.309,789.777,44.6918,0,0.000885,0,0
0:3:15.099,793.065,44.878,0,0.000885,0,0
0:3:15.894,796.467,45.071,0,0.000885,0,0
0:3:16.694,799.577,45.2503,0,0.000885,0,0
0:3:17.504,803.278,45.4571,0,0.000885,0,0
0:3:18.308,806.503,45.6364,0,0.000885,0,0
0:3:19.106,809.968,45.8363,0,0.000885,0,0
0:3:19.896,813.958,46.0639,0,0.000885,0,0
0:3:20.711,817.129,46.2431,0,0.000885,0,0
0:3:21.508,820.595,46.4362,0,0.000885,0,0
0:3:22.308,823.997,46.6292,0,0.000885,0,0
0:3:23.117,826.813,46.7878,0,0.000885,0,0
0:3:23.914,828.575,46.8843,0,0.000885,0,0
0:3:24.711,828.868,46.905,0,0.000885,0,0
0:3:25.497,816.484,46.2018,0,0.000885,0,0
0:3:26.300,669.502,37.8867,0,0.000885,0,0

File: DataFile2021-06-08_052852.csv
Test ID:,Date Tested:,Time:,Test Type:,Diameter Avg. (mm):,Cyl. Corr. Factor:,Height (mm):,Age (days):,Weight (kN):,Break Type:,Ramp Rate (MPa/s):,Load at Break (kN):,Stress at Break (MPa):
12,6/8/2021,05:28,Cylinder,150,1,300,0,3.6,5,0.24,925.08,52.35
Sample Time,Load (kN),Stress (MPa),Long. Strain,Trans. Strain,Chan1 Deflection (mm),Chan2 Deflection (mm)
0:0:17.411,5.04428,0.282685,0,0.000885,0,0
0:0:18.303,20.6442,1.16521,0,0.000885,0,0
0:0:19.204,19.6478,1.11006,0,0.000885,0,0
0:0:20.095,19.4699,1.10316,0,0.000885,0,0
0:0:21.001,20.9378,1.1859,0,0.000885,0,0
0:0:21.905,23.4599,1.33069,0,0.000885,0,0
0:0:22.806,29.207,1.65474,0,0.000885,0,0
0:0:23.719,33.4907,1.89606,0,0.000885,0,0
0:0:24.621,37.245,2.1098,0,0.000885,0,0
0:0:25.516,41.2306,2.33043,0,0.000885,0,0
0:0:26.410,44.927,2.54417,0,0.000885,0,0
0:0:27.309,48.0942,2.72343,0,0.000885,0,0
0:0:28.214,53.7834,3.04059,0,0.000885,0,0
0:0:29.122,57.3598,3.24743,0,0.000885,0,0
0:0:30.018,60.7049,3.43359,0,0.000885,0,0
0:0:30.915,65.2198,3.6887,0,0.000885,0,0
0:0:31.812,68.854,3.89554,0,0.000885,0,0
0:0:32.707,72.9019,4.12306,0,0.000885,0,0
0:0:33.618,76.3626,4.32301,0,0.000885,0,0
0:0:34.526,80.7041,4.56433,0,0.000885,0,0
0:0:35.424,84.6319,4.79186,0,0.000885,0,0
0:0:36.317,88.8577,5.02628,0,0.000885,0,0
0:0:37.210,92.2561,5.21933,0,0.000885,0,0
0:0:38.111,96.5976,5.46754,0,0.000885,0,0
0:0:39.024,100.525,5.68817,0,0.000885,0,0
0:0:39.926,104.337,5.90191,0,0.000885,0,0
0:0:40.819,108.27,6.12944,0,0.000885,0,0
0:0:41.719,113.314,6.41212,0,0.000885,0,0
0:0:42.614,115.894,6.55691,0,0.000885,0,0
0:0:43.526,120.293,6.80513,0,0.000885,0,0
0:0:44.430,125.044,7.07402,0,0.000885,0,0
0:0:45.329,128.505,7.27397,0,0.000885,0,0
0:0:46.227,132.726,7.50839,0,0.000885,0,0
0:0:47.120,136.654,7.73592,0,0.000885,0,0
0:0:48.020,140.235,7.93587,0,0.000885,0,0
0:0:48.933,144.514,8.17718,0,0.000885,0,0
0:0:49.835,148.74,8.4185,0,0.000885,0,0
0:0:50.729,151.844,8.59087,0,0.000885,0,0
0:0:51.626,155.95,8.82529,0,0.000885,0,0
0:0:52.525,160.47,9.0804,0,0.000885,0,0
0:0:53.431,164.282,9.29413,0,0.000885,0,0
0:0:54.341,168.561,9.53545,0,0.000885,0,0
0:0:55.235,172.551,9.76298,0,0.000885,0,0
0:0:56.133,176.421,9.98361,0,0.000885,0,0
0:0:57.030,180.055,10.1905,0,0.000885,0,0
0:0:57.934,184.045,10.418,0,0.000885,0,0
0:0:58.843,188.035,10.6386,0,0.000885,0,0
0:0:59.744,192.199,10.873,0,0.000885,0,0
0:1:0.634,196.42,11.1143,0,0.000885,0,0
0:1:1.521,199.939,11.3143,0,0.000885,0,0
0:1:2.410,204.396,11.5694,0,0.000885,0,0
0:1:3.314,207.389,11.7349,0,0.000885,0,0
0:1:4.217,211.847,11.99,0,0.000885,0,0
0:1:5.105,215.952,12.2175,0,0.000885,0,0
0:1:5.994,219.707,12.4312,0,0.000885,0,0
0:1:6.895,223.577,12.6519,0,0.000885,0,0
0:1:7.806,228.207,12.9139,0,0.000885,0,0
0:1:8.710,231.61,13.1069,0,0.000885,0,0
0:1:9.607,235.894,13.3483,0,0.000885,0,0
0:1:10.509,240.524,13.6103,0,0.000885,0,0
0:1:11.395,243.166,13.7619,0,0.000885,0,0
0:1:12.294,247.855,14.0239,0,0.000885,0,0
0:1:13.197,251.494,14.2308,0,0.000885,0,0
0:1:14.100,255.248,14.4445,0,0.000885,0,0
0:1:14.996,259.296,14.672,0,0.000885,0,0
0:1:15.914,264.162,14.9478,0,0.000885,0,0
0:1:16.813,268.032,15.1685,0,0.000885,0,0
0:1:17.706,271.902,15.3891,0,0.000885,0,0
0:1:18.612,275.247,15.5753,0,0.000885,0,0
0:1:19.515,279.353,15.8097,0,0.000885,0,0
0:1:20.402,283.574,16.0441,0,0.000885,0,0
0:1:21.295,286.977,16.2372,0,0.000885,0,0
0:1:22.203,291.612,16.4992,0,0.000885,0,0
0:1:23.100,295.833,16.7405,0,0.000885,0,0
0:1:24.002,299.41,16.9404,0,0.000885,0,0
0:1:24.904,303.048,17.1473,0,0.000885,0,0
0:1:25.807,307.154,17.3817,0,0.000885,0,0
0:1:26.713,311.198,17.6092,0,0.000885,0,0
0:1:27.612,315.13,17.8298,0,0.000885,0,0
0:1:28.517,319.587,18.0849,0,0.000885,0,0
0:1:29.420,323.105,18.2849,0,0.000885,0,0
0:1:30.310,327.678,18.54,0,0.000885,0,0
0:1:31.204,332.14,18.7951,0,0.000885,0,0
0:1:32.104,334.6,18.933,0,0.000885,0,0
0:1:32.998,339.119,19.1881,0,0.000885,0,0
0:1:33.904,343.283,19.4225,0,0.000885,0,0
0:1:34.808,347.037,19.6363,0,0.000885,0,0
0:1:35.707,350.555,19.8362,0,0.000885,0,0
0:1:36.608,355.244,20.1051,0,0.000885,0,0
0:1:37.510,359.176,20.3257,0,0.000885,0,0
0:1:38.404,363.046,20.5464,0,0.000885,0,0
0:1:39.309,366.743,20.7532,0,0.000885,0,0
0:1:40.209,371.022,20.9945,0,0.000885,0,0
0:1:41.109,374.66,21.2014,0,0.000885,0,0
0:1:42.010,379.117,21.4565,0,0.000885,0,0
0:1:42.916,382.694,21.6564,0,0.000885,0,0
0:1:43.820,386.684,21.884,0,0.000885,0,0
0:1:44.712,390.612,22.1046,0,0.000885,0,0
0:1:45.602,395.069,22.3597,0,0.000885,0,0
0:1:46.512,398.587,22.5528,0,0.000885,0,0
0:1:47.406,402.399,22.7734,0,0.000885,0,0
0:1:48.313,406.799,23.0216,0,0.000885,0,0
0:1:49.217,410.789,23.2491,0,0.000885,0,0
0:1:50.113,414.601,23.4629,0,0.000885,0,0
0:1:50.999,418.649,23.6904,0,0.000885,0,0
0:1:51.900,422.461,23.9041,0,0.000885,0,0
0:1:52.799,426.153,24.1179,0,0.000885,0,0
0:1:53.704,430.846,24.3799,0,0.000885,0,0
0:1:54.599,434.542,24.5867,0,0.000885,0,0
0:1:55.502,438.528,24.8142,0,0.000885,0,0
0:1:56.392,442.282,25.028,0,0.000885,0,0
0:1:57.289,446.975,25.2969,0,0.000885,0,0
0:1:58.182,450.378,25.483,0,0.000885,0,0
0:1:59.087,454.19,25.7037,0,0.000885,0,0
0:1:59.981,458.296,25.9312,0,0.000885,0,0
0:2:0.869,462.224,26.1587,0,0.000885,0,0
0:2:1.759,465.862,26.3656,0,0.000885,0,0
0:2:2.651,470.026,26.6,0,0.000885,0,0
0:2:3.559,474.074,26.8275,0,0.000885,0,0
0:2:4.453,477.944,27.0481,0,0.000885,0,0
0:2:5.344,481.756,27.2619,0,0.000885,0,0
0:2:6.237,486.097,27.5101,0,0.000885,0,0
0:2:7.126,489.731,27.71,0,0.000885,0,0
0:2:8.020,493.544,27.9307,0,0.000885,0,0
0:2:8.921,498.058,28.1858,0,0.000885,0,0
0:2:9.816,501.404,28.3719,0,0.000885,0,0
0:2:10.713,505.509,28.6063,0,0.000885,0,0
0:2:11.608,509.206,28.8132,0,0.000885,0,0
0:2:12.501,513.836,29.0752,0,0.000885,0,0
0:2:13.402,517.942,29.3096,0,0.000885,0,0
0:2:14.304,521.403,29.5027,0,0.000885,0,0
0:2:15.203,525.802,29.7509,0,0.000885,0,0
0:2:16.115,529.436,29.9577,0,0.000885,0,0
0:2:17.015,533.72,30.199,0,0.000885,0,0
0:2:17.915,537.474,30.4128,0,0.000885,0,0
0:2:18.817,542.047,30.6748,0,0.000885,0,0
0:2:19.718,544.92,30.8334,0,0.000885,0,0
0:2:20.608,549.791,31.1091,0,0.000885,0,0
0:2:21.505,553.425,31.316,0,0.000885,0,0
0:2:22.393,557.531,31.5504,0,0.000885,0,0
0:2:23.298,561.285,31.7641,0,0.000885,0,0
0:2:24.199,564.92,31.971,0,0.000885,0,0
0:2:25.090,568.794,32.1847,0,0.000885,0,0
0:2:25.976,573.603,32.4605,0,0.000885,0,0
0:2:26.867,577.357,32.6743,0,0.000885,0,0
0:2:27.759,580.991,32.8742,0,0.000885,0,0
0:2:28.665,584.745,33.0879,0,0.000885,0,0
0:2:29.561,588.735,33.3155,0,0.000885,0,0
0:2:30.448,593.428,33.5844,0,0.000885,0,0
0:2:31.345,596.947,33.7774,0,0.000885,0,0
0:2:32.237,600.763,33.998,0,0.000885,0,0
0:2:33.141,604.931,34.2325,0,0.000885,0,0
0:2:34.046,607.867,34.3979,0,0.000885,0,0
0:2:34.942,612.444,34.6599,0,0.000885,0,0
0:2:35.838,616.141,34.8668,0,0.000885,0,0
0:2:36.732,621.016,35.1426,0,0.000885,0,0
0:2:37.624,625.122,35.377,0,0.000885,0,0
0:2:38.535,628.823,35.5838,0,0.000885,0,0
0:2:39.438,632.346,35.7838,0,0.000885,0,0
0:2:40.335,637.097,36.0527,0,0.000885,0,0
0:2:41.225,640.09,36.2251,0,0.000885,0,0
0:2:42.120,644.908,36.494,0,0.000885,0,0
0:2:43.031,649.071,36.7284,0,0.000885,0,0
0:2:43.936,651.949,36.8938,0,0.000885,0,0
0:2:44.829,656.233,37.1352,0,0.000885,0,0
0:2:45.720,660.107,37.3558,0,0.000885,0,0
0:2:46.616,664.689,37.6109,0,0.000885,0,0
0:2:47.510,668.385,37.8246,0,0.000885,0,0
0:2:48.421,672.26,38.0453,0,0.000885,0,0
0:2:49.321,675.898,38.2452,0,0.000885,0,0
0:2:50.212,680.476,38.5072,0,0.000885,0,0
0:2:51.106,683.825,38.6934,0,0.000885,0,0
0:2:52.002,688.576,38.9623,0,0.000885,0,0
0:2:52.913,692.806,39.2036,0,0.000885,0,0
0:2:53.822,696.267,39.4035,0,0.000885,0,0
0:2:54.718,699.848,39.6035,0,0.000885,0,0
0:2:55.620,704.603,39.8724,0,0.000885,0,0
0:2:56.511,708.006,40.0654,0,0.000885,0,0
0:2:57.413,712.294,40.3068,0,0.000885,0,0
0:2:58.323,716.106,40.5205,0,0.000885,0,0
0:2:59.229,719.922,40.7411,0,0.000885,0,0
0:3:0.121,724.268,40.9824,0,0.000885,0,0
0:3:1.024,727.907,41.1893,0,0.000885,0,0
0:3:1.921,732.075,41.4237,0,0.000885,0,0
0:3:2.823,736.243,41.665,0,0.000885,0,0
0:3:3.733,739.997,41.8788,0,0.000885,0,0
0:3:4.631,743.578,42.0787,0,0.000885,0,0
0:3:5.528,748.097,42.3338,0,0.000885,0,0
0:3:6.422,751.798,42.5407,0,0.000885,0,0
0:3:7.313,756.26,42.7958,0,0.000885,0,0
0:3:8.225,760.25,43.0233,0,0.000885,0,0
0:3:9.128,763.537,43.2094,0,0.000885,0,0
0:3:10.022,767.763,43.4439,0,0.000885,0,0
0:3:10.913,772.047,43.6921,0,0.000885,0,0
0:3:11.825,775.098,43.8644,0,0.000885,0,0
0:3:12.724,779.15,44.092,0,0.000885,0,0
0:3:13.634,783.728,44.3471,0,0.000885,0,0
0:3:14.533,787.251,44.547,0,0.000885,0,0
0:3:15.425,791.89,44.809,0,0.000885,0,0
0:3:16.321,795.115,44.9952,0,0.000885,0,0
0:3:17.225,799.225,45.2296,0,0.000885,0,0
0:3:18.125,803.745,45.4847,0,0.000885,0,0
0:3:19.031,807.619,45.7053,0,0.000885,0,0
0:3:19.931,811.258,45.9053,0,0.000885,0,0
0:3:20.825,815.546,46.1535,0,0.000885,0,0
0:3:21.726,819.358,46.3672,0,0.000885,0,0
0:3:22.627,823.41,46.5948,0,0.000885,0,0
0:3:23.536,827.343,46.8154,0,0.000885,0,0
0:3:24.437,831.746,47.0705,0,0.000885,0,0
0:3:25.328,835.207,47.2636,0,0.000885,0,0
0:3:26.219,840.02,47.5325,0,0.000885,0,0
0:3:27.115,843.014,47.7048,0,0.000885,0,0
0:3:28.021,847.244,47.9461,0,0.000885,0,0
0:3:28.927,851.292,48.1737,0,0.000885,0,0
0:3:29.827,855.051,48.3874,0,0.000885,0,0
0:3:30.724,858.689,48.5942,0,0.000885,0,0
0:3:31.614,863.151,48.8425,0,0.000885,0,0
0:3:32.505,866.611,49.0424,0,0.000885,0,0
0:3:33.415,870.722,49.2699,0,0.000885,0,0
0:3:34.323,874.712,49.4975,0,0.000885,0,0
0:3:35.215,878.822,49.7319,0,0.000885,0,0
0:3:36.127,882.874,49.9594,0,0.000885,0,0
0:3:37.022,886.686,50.1731,0,0.000885,0,0
0:3:37.916,890.618,50.4007,0,0.000885,0,0
0:3:38.829,895.08,50.6489,0,0.000885,0,0
0:3:39.727,898.309,50.835,0,0.000885,0,0
0:3:40.622,902.006,51.0419,0,0.000885,0,0
0:3:41.517,906.467,51.297,0,0.000885,0,0
0:3:42.408,910.342,51.5176,0,0.000885,0,0
0:3:43.319,914.101,51.7245,0,0.000885,0,0
0:3:44.219,917.561,51.9244,0,0.000885,0,0
0:3:45.116,920.675,52.0968,0,0.000885,0,0
0:3:46.017,923.255,52.2485,0,0.000885,0,0
0:3:46.922,925.252,52.3588,0,0.000885,0,0
0:3:47.814,924.843,52.3381,0,0.000885,0,0
0:3:48.723,874.947,49.5113,0,0.000885,0,0
0:3:49.034,728.552,41.2306,0,0.000885,0,0