Folder: Experiment-Files (part 14)

File: DataFile2021-06-07_052507.csv
Test ID:,Date Tested:,Time:,Test Type:,Diameter Avg. (mm):,Cyl. Corr. Factor:,Height (mm):,Age (days):,Weight (kN):,Break Type:,Ramp Rate (MPa/s):,Load at Break (kN):,Stress at Break (MPa):
12,6/7/2021,05:25,Cylinder,100,1,200,0,3.6,3,0.25,917.51,116.82
Sample Time,Load (kN),Stress (MPa),Long. Strain,Trans. Strain,Chan1 Deflection (mm),Chan2 Deflection (mm)
0:0:14.764,8.32707,1.06179,0,0.000885,0,0
0:0:16.767,12.4906,1.59269,0,0.000885,0,0
0:0:18.770,12.8465,1.63406,0,0.000885,0,0
0:0:20.781,16.0714,2.04774,0,0.000885,0,0
0:0:22.782,22.1121,2.81306,0,0.000885,0,0
0:0:24.773,24.4563,3.11643,0,0.000885,0,0
0:0:26.787,28.9134,3.6818,0,0.000885,0,0
0:0:28.777,32.6677,4.15754,0,0.000885,0,0
0:0:30.773,36.7734,4.68154,0,0.000885,0,0
0:0:32.777,40.8792,5.20554,0,0.000885,0,0
0:0:34.768,44.8069,5.70196,0,0.000885,0,0
0:0:36.781,48.6191,6.19149,0,0.000885,0,0
0:0:38.770,52.3155,6.66034,0,0.000885,0,0
0:0:40.786,55.9542,7.12228,0,0.000885,0,0
0:0:42.784,60.3535,7.68076,0,0.000885,0,0
0:0:44.775,64.8684,8.25992,0,0.000885,0,0
0:0:46.788,68.0934,8.66671,0,0.000885,0,0
0:0:48.778,71.9633,9.16313,0,0.000885,0,0
0:0:50.783,76.1269,9.69403,0,0.000885,0,0
0:0:52.790,80.0013,10.1836,0,0.000885,0,0
0:0:54.778,83.929,10.6869,0,0.000885,0,0
0:0:56.793,87.799,11.1764,0,0.000885,0,0
0:0:58.781,91.5533,11.659,0,0.000885,0,0
0:1:0.787,95.6012,12.1692,0,0.000885,0,0
0:1:2.791,99.529,12.6726,0,0.000885,0,0
0:1:4.782,103.399,13.1621,0,0.000885,0,0
0:1:6.797,107.625,13.6999,0,0.000885,0,0
0:1:8.787,111.201,14.1618,0,0.000885,0,0
0:1:10.785,115.129,14.6583,0,0.000885,0,0
0:1:12.790,119.119,15.1685,0,0.000885,0,0
0:1:14.780,123.46,15.72,0,0.000885,0,0
0:1:16.791,127.095,16.182,0,0.000885,0,0
0:1:18.780,130.733,16.6439,0,0.000885,0,0
0:1:20.785,134.839,17.1679,0,0.000885,0,0
0:1:22.788,138.651,17.6506,0,0.000885,0,0
0:1:24.780,143.108,18.2228,0,0.000885,0,0
0:1:26.792,146.742,18.6848,0,0.000885,0,0
0:1:28.781,150.732,19.195,0,0.000885,0,0
0:1:30.779,154.251,19.6432,0,0.000885,0,0
0:1:32.782,158.472,20.1741,0,0.000885,0,0
0:1:34.769,162.405,20.6774,0,0.000885,0,0
0:1:36.784,166.159,21.1531,0,0.000885,0,0
0:1:38.775,169.971,21.6426,0,0.000885,0,0
0:1:40.787,173.783,22.1253,0,0.000885,0,0
0:1:42.791,178.12,22.6769,0,0.000885,0,0
0:1:44.779,182.284,23.2078,0,0.000885,0,0
0:1:46.789,186.158,23.7042,0,0.000885,0,0
0:1:48.777,189.912,24.1799,0,0.000885,0,0
0:1:50.775,193.898,24.6901,0,0.000885,0,0
0:1:52.776,197.888,25.1934,0,0.000885,0,0
0:1:54.771,201.349,25.6347,0,0.000885,0,0
0:1:56.784,205.454,26.1587,0,0.000885,0,0
0:1:58.768,209.618,26.6896,0,0.000885,0,0
0:2:0.775,213.016,27.124,0,0.000885,0,0
0:2:2.775,217.767,27.7238,0,0.000885,0,0
0:2:4.778,220.934,28.1306,0,0.000885,0,0
0:2:6.775,224.924,28.6408,0,0.000885,0,0
0:2:8.776,229.439,29.2131,0,0.000885,0,0
0:2:10.778,233.487,29.7302,0,0.000885,0,0
0:2:12.769,236.89,30.1646,0,0.000885,0,0
0:2:14.777,240.76,30.6541,0,0.000885,0,0
0:2:16.786,244.572,31.1367,0,0.000885,0,0
0:2:18.770,248.442,31.6331,0,0.000885,0,0
0:2:20.786,253.193,32.2399,0,0.000885,0,0
0:2:22.782,256.596,32.6674,0,0.000885,0,0
0:2:24.773,260.114,33.1155,0,0.000885,0,0
0:2:26.782,264.513,33.6809,0,0.000885,0,0
0:2:28.778,268.268,34.1566,0,0.000885,0,0
0:2:30.779,272.489,34.6944,0,0.000885,0,0
0:2:32.783,276.301,35.1771,0,0.000885,0,0
0:2:34.779,279.704,35.6114,0,0.000885,0,0
0:2:36.780,284.633,36.2388,0,0.000885,0,0
0:2:38.773,288.151,36.687,0,0.000885,0,0
0:2:40.788,291.728,37.1421,0,0.000885,0,0
0:2:42.784,296.007,37.6867,0,0.000885,0,0
0:2:44.766,299.761,38.1694,0,0.000885,0,0
0:2:46.786,303.925,38.7003,0,0.000885,0,0
0:2:48.771,307.385,39.1346,0,0.000885,0,0
0:2:50.783,312.198,39.7483,0,0.000885,0,0
0:2:52.777,315.366,40.1551,0,0.000885,0,0
0:2:54.782,319.351,40.6584,0,0.000885,0,0
0:2:56.793,322.87,41.1065,0,0.000885,0,0
0:2:58.776,327.563,41.7064,0,0.000885,0,0
0:3:0.794,331.317,42.1821,0,0.000885,0,0
0:3:2.783,335.071,42.6648,0,0.000885,0,0
0:3:4.785,339.177,43.1819,0,0.000885,0,0
0:3:6.783,343.283,43.7059,0,0.000885,0,0
0:3:8.775,346.623,44.1333,0,0.000885,0,0
0:3:10.779,350.965,44.6849,0,0.000885,0,0
0:3:12.785,354.661,45.1538,0,0.000885,0,0
0:3:14.777,358.531,45.6502,0,0.000885,0,0
0:3:16.779,362.93,46.2087,0,0.000885,0,0
0:3:18.784,366.685,46.6844,0,0.000885,0,0
0:3:20.775,370.203,47.1326,0,0.000885,0,0
0:3:22.788,374.776,47.7186,0,0.000885,0,0
0:3:24.788,378.237,48.1599,0,0.000885,0,0
0:3:26.790,382.872,48.7459,0,0.000885,0,0
0:3:28.793,386.155,49.1665,0,0.000885,0,0
0:3:30.785,389.793,49.6285,0,0.000885,0,0
0:3:32.770,393.957,50.1594,0,0.000885,0,0
0:3:34.775,398.236,50.704,0,0.000885,0,0
0:3:36.774,402.168,51.2074,0,0.000885,0,0
0:3:38.789,405.745,51.6624,0,0.000885,0,0
0:3:40.790,409.321,52.1175,0,0.000885,0,0
0:3:42.788,413.836,52.6897,0,0.000885,0,0
0:3:44.779,417.648,53.1793,0,0.000885,0,0
0:3:46.780,421.58,53.6757,0,0.000885,0,0
0:3:48.787,425.802,54.2135,0,0.000885,0,0
0:3:50.783,429.147,54.641,0,0.000885,0,0
0:3:52.782,433.368,55.1787,0,0.000885,0,0
0:3:54.776,437.474,55.7027,0,0.000885,0,0
0:3:56.789,441.05,56.1578,0,0.000885,0,0
0:3:58.784,445.392,56.7094,0,0.000885,0,0
0:4:0.790,448.737,57.1369,0,0.000885,0,0
0:4:2.790,453.425,57.7298,0,0.000885,0,0
0:4:4.793,456.948,58.178,0,0.000885,0,0
0:4:6.792,461.227,58.7226,0,0.000885,0,0
0:4:8.794,464.746,59.1708,0,0.000885,0,0
0:4:10.797,468.558,59.6603,0,0.000885,0,0
0:4:12.781,472.139,60.1154,0,0.000885,0,0
0:4:14.779,476.711,60.6945,0,0.000885,0,0
0:4:16.789,479.701,61.0807,0,0.000885,0,0
0:4:18.774,484.629,61.7081,0,0.000885,0,0
0:4:20.777,488.148,62.1562,0,0.000885,0,0
0:4:22.785,492.663,62.7285,0,0.000885,0,0
0:4:24.793,496.301,63.1905,0,0.000885,0,0
0:4:26.793,500.171,63.6869,0,0.000885,0,0
0:4:28.799,503.574,64.1143,0,0.000885,0,0
0:4:30.801,508.267,64.7142,0,0.000885,0,0
0:4:32.797,511.55,65.1348,0,0.000885,0,0
0:4:34.792,516.185,65.7208,0,0.000885,0,0
0:4:36.788,519.704,66.169,0,0.000885,0,0
0:4:38.794,523.458,66.6516,0,0.000885,0,0
0:4:40.785,527.328,67.1411,0,0.000885,0,0
0:4:42.788,531.785,67.7065,0,0.000885,0,0
0:4:44.795,535.188,68.1409,0,0.000885,0,0
0:4:46.795,539.289,68.6649,0,0.000885,0,0
0:4:48.793,543.457,69.1958,0,0.000885,0,0
0:4:50.786,546.976,69.6439,0,0.000885,0,0
0:4:52.795,551.375,70.2024,0,0.000885,0,0
0:4:54.786,554.658,70.623,0,0.000885,0,0
0:4:56.797,558.941,71.1677,0,0.000885,0,0
0:4:58.797,563.105,71.6986,0,0.000885,0,0
0:5:0.798,566.917,72.1812,0,0.000885,0,0
0:5:2.799,570.258,72.6087,0,0.000885,0,0
0:5:4.785,574.777,73.181,0,0.000885,0,0
0:5:6.787,578.82,73.6981,0,0.000885,0,0
0:5:8.794,582.459,74.16,0,0.000885,0,0
0:5:10.790,586.974,74.7392,0,0.000885,0,0
0:5:12.791,590.377,75.1666,0,0.000885,0,0
0:5:14.786,594.251,75.6631,0,0.000885,0,0
0:5:16.798,598.299,76.1802,0,0.000885,0,0
0:5:18.792,602.236,76.6766,0,0.000885,0,0
0:5:20.804,606.106,77.173,0,0.000885,0,0
0:5:22.805,610.158,77.6901,0,0.000885,0,0
0:5:24.788,614.033,78.1797,0,0.000885,0,0
0:5:26.796,617.849,78.6692,0,0.000885,0,0
0:5:28.780,622.075,79.207,0,0.000885,0,0
0:5:30.791,625.949,79.6965,0,0.000885,0,0
0:5:32.785,629.472,80.1447,0,0.000885,0,0
0:5:34.790,633.636,80.6756,0,0.000885,0,0
0:5:36.801,637.688,81.1927,0,0.000885,0,0
0:5:38.784,641.211,81.6408,0,0.000885,0,0
0:5:40.810,645.379,82.1717,0,0.000885,0,0
0:5:42.809,649.721,82.7233,0,0.000885,0,0
0:5:44.791,653.244,83.1715,0,0.000885,0,0
0:5:46.802,657.354,83.6955,0,0.000885,0,0
0:5:48.796,661.108,84.1781,0,0.000885,0,0
0:5:50.794,664.867,84.6538,0,0.000885,0,0
0:5:52.791,668.741,85.1434,0,0.000885,0,0
0:5:54.788,673.261,85.7225,0,0.000885,0,0
0:5:56.818,676.663,86.1569,0,0.000885,0,0
0:5:58.805,680.889,86.6947,0,0.000885,0,0
0:6:0.807,684.706,87.1773,0,0.000885,0,0
0:6:2.808,688.696,87.6875,0,0.000885,0,0
0:6:4.786,692.397,88.1564,0,0.000885,0,0
0:6:6.796,696.68,88.7011,0,0.000885,0,0
0:6:8.790,699.852,89.1078,0,0.000885,0,0
0:6:10.804,704.429,89.6939,0,0.000885,0,0
0:6:12.801,708.184,90.1696,0,0.000885,0,0
0:6:14.796,712,90.6523,0,0.000885,0,0
0:6:16.815,715.995,91.1625,0,0.000885,0,0
0:6:18.799,719.807,91.652,0,0.000885,0,0
0:6:20.806,723.859,92.1622,0,0.000885,0,0
0:6:22.805,727.849,92.6724,0,0.000885,0,0
0:6:24.808,731.666,93.162,0,0.000885,0,0
0:6:26.818,735.892,93.6998,0,0.000885,0,0
0:6:28.804,739.415,94.1479,0,0.000885,0,0
0:6:30.806,743.289,94.6374,0,0.000885,0,0
0:6:32.806,747.337,95.1545,0,0.000885,0,0
0:6:34.799,752.212,95.7751,0,0.000885,0,0
0:6:36.810,755.437,96.1888,0,0.000885,0,0
0:6:38.807,759.196,96.6645,0,0.000885,0,0
0:6:40.806,763.364,97.1954,0,0.000885,0,0
0:6:42.800,767.412,97.7125,0,0.000885,0,0
0:6:44.814,771.344,98.2089,0,0.000885,0,0
0:6:46.825,774.867,98.6571,0,0.000885,0,0
0:6:48.807,778.861,99.1673,0,0.000885,0,0
0:6:50.812,783.203,99.7189,0,0.000885,0,0
0:6:52.800,786.784,100.174,0,0.000885,0,0
0:6:54.787,790.894,100.698,0,0.000885,0,0
0:6:56.796,794.768,101.194,0,0.000885,0,0
0:6:58.793,798.407,101.656,0,0.000885,0,0
0:7:0.792,802.748,102.208,0,0.000885,0,0
0:7:2.790,806.858,102.732,0,0.000885,0,0
0:7:4.792,809.972,103.132,0,0.000885,0,0
0:7:6.810,814.198,103.67,0,0.000885,0,0
0:7:8.795,817.717,104.118,0,0.000885,0,0
0:7:10.798,822.062,104.669,0,0.000885,0,0
0:7:12.813,825.879,105.152,0,0.000885,0,0
0:7:14.807,829.927,105.669,0,0.000885,0,0
0:7:16.819,833.45,106.117,0,0.000885,0,0
0:7:18.804,838.027,106.703,0,0.000885,0,0
0:7:20.810,841.902,107.193,0,0.000885,0,0
0:7:22.808,845.718,107.682,0,0.000885,0,0
0:7:24.812,849.65,108.179,0,0.000885,0,0
0:7:26.823,853.289,108.648,0,0.000885,0,0
0:7:28.809,857.808,109.22,0,0.000885,0,0
0:7:30.822,861.274,109.661,0,0.000885,0,0
0:7:32.817,865.677,110.22,0,0.000885,0,0
0:7:34.801,869.552,110.716,0,0.000885,0,0
0:7:36.822,873.248,111.185,0,0.000885,0,0
0:7:38.807,877.652,111.743,0,0.000885,0,0
0:7:40.811,881.348,112.219,0,0.000885,0,0
0:7:42.813,885.281,112.715,0,0.000885,0,0
0:7:44.818,889.039,113.198,0,0.000885,0,0
0:7:46.826,888.274,113.102,0,0.000885,0,0
0:7:48.819,897.9,114.322,0,0.000885,0,0
0:7:50.819,901.717,114.811,0,0.000885,0,0
0:7:52.813,902.482,114.908,0,0.000885,0,0
0:7:54.806,906.588,115.432,0,0.000885,0,0
0:7:56.813,908.349,115.653,0,0.000885,0,0
0:7:58.807,688.696,87.6875,0,0.000885,0,0
0:8:0.796,683.883,87.0739,0,0.000885,0,0
0:8:2.790,689.345,87.7703,0,0.000885,0,0
0:8:4.769,651.718,82.9784,0,0.000885,0,0
0:8:5.387,645.788,82.2269,0,0.000885,0,0

File: DataFile2021-06-07_053940.csv
Test ID:,Date Tested:,Time:,Test Type:,Diameter Avg. (mm):,Cyl. Corr. Factor:,Height (mm):,Age (days):,Weight (kN):,Break Type:,Ramp Rate (MPa/s):,Load at Break (kN):,Stress at Break (MPa):
12,6/7/2021,05:39,Cylinder,100,1,200,0,3.6,3,0.25,960.24,122.26
Sample Time,Load (kN),Stress (MPa),Long. Strain,Trans. Strain,Chan1 Deflection (mm),Chan2 Deflection (mm)
0:0:10.198,5.63145,0.717055,0,0.000885,0,0
0:0:12.285,8.97206,1.14453,0,0.000885,0,0
0:0:14.373,12.7842,1.62716,0,0.000885,0,0
0:0:16.481,17.5349,2.2339,0,0.000885,0,0
0:0:18.575,20.8221,2.64759,0,0.000885,0,0
0:0:20.665,25.6885,3.26811,0,0.000885,0,0
0:0:22.779,30.2034,3.84727,0,0.000885,0,0
0:0:24.867,33.9577,4.32301,0,0.000885,0,0
0:0:26.979,38.0056,4.84012,0,0.000885,0,0
0:0:29.072,42.1691,5.37102,0,0.000885,0,0
0:0:31.181,46.4528,5.9157,0,0.000885,0,0
0:0:33.277,50.4962,6.43281,0,0.000885,0,0
0:0:35.367,54.2505,6.90855,0,0.000885,0,0
0:0:37.481,58.8856,7.4946,0,0.000885,0,0
0:0:39.571,63.1647,8.03929,0,0.000885,0,0
0:0:41.679,66.919,8.52192,0,0.000885,0,0
0:0:43.777,70.789,9.01145,0,0.000885,0,0
0:0:45.869,75.1883,9.57682,0,0.000885,0,0
0:0:47.979,78.9426,10.0526,0,0.000885,0,0
0:0:50.068,83.2262,10.5972,0,0.000885,0,0
0:0:52.182,87.799,11.1764,0,0.000885,0,0
0:0:54.272,91.6111,11.6659,0,0.000885,0,0
0:0:56.379,96.304,12.2589,0,0.000885,0,0
0:0:58.478,100.058,12.7415,0,0.000885,0,0
0:1:0.567,103.692,13.2035,0,0.000885,0,0
0:1:2.682,108.092,13.7619,0,0.000885,0,0
0:1:4.771,112.491,14.3204,0,0.000885,0,0
0:1:6.880,116.188,14.7961,0,0.000885,0,0
0:1:8.972,120.645,15.3615,0,0.000885,0,0
0:1:11.076,124.866,15.8993,0,0.000885,0,0
0:1:13.175,129.092,16.4371,0,0.000885,0,0
0:1:15.264,133.255,16.968,0,0.000885,0,0
0:1:17.377,137.477,17.5058,0,0.000885,0,0
0:1:19.462,140.937,17.9471,0,0.000885,0,0
0:1:21.569,145.159,18.4848,0,0.000885,0,0
0:1:23.666,149.149,18.9882,0,0.000885,0,0
0:1:25.754,153.548,19.5535,0,0.000885,0,0
0:1:27.870,157.77,20.0913,0,0.000885,0,0
0:1:29.959,162.284,20.6636,0,0.000885,0,0
0:1:32.072,166.039,21.1393,0,0.000885,0,0
0:1:34.160,170.554,21.7185,0,0.000885,0,0
0:1:36.263,174.192,22.1804,0,0.000885,0,0
0:1:38.361,178.472,22.7251,0,0.000885,0,0
0:1:40.448,182.168,23.194,0,0.000885,0,0
0:1:42.562,186.745,23.78,0,0.000885,0,0
0:1:44.651,190.615,24.2695,0,0.000885,0,0
0:1:46.761,195.072,24.8349,0,0.000885,0,0
0:1:48.844,199.178,25.3589,0,0.000885,0,0
0:1:50.948,202.87,25.8278,0,0.000885,0,0
0:1:53.039,206.976,26.3518,0,0.000885,0,0
0:1:55.143,211.317,26.9033,0,0.000885,0,0
0:1:57.252,215.365,27.4204,0,0.000885,0,0
0:1:59.346,219.586,27.9582,0,0.000885,0,0
0:2:1.452,223.399,28.4409,0,0.000885,0,0
0:2:3.546,227.682,28.9925,0,0.000885,0,0
0:2:5.649,231.61,29.4889,0,0.000885,0,0
0:2:7.738,235.836,30.0267,0,0.000885,0,0
0:2:9.845,240.173,30.5782,0,0.000885,0,0
0:2:11.944,243.927,31.0609,0,0.000885,0,0
0:2:14.046,248.148,31.5987,0,0.000885,0,0
0:2:16.149,252.139,32.102,0,0.000885,0,0
0:2:18.251,256.889,32.7087,0,0.000885,0,0
0:2:20.346,260.817,33.2052,0,0.000885,0,0
0:2:22.452,264.749,33.7085,0,0.000885,0,0
0:2:24.545,268.913,34.2394,0,0.000885,0,0
0:2:26.657,273.486,34.8185,0,0.000885,0,0
0:2:28.743,277.24,35.3012,0,0.000885,0,0
0:2:30.845,281.403,35.8321,0,0.000885,0,0
0:2:32.948,285.042,36.294,0,0.000885,0,0
0:2:35.049,289.441,36.8525,0,0.000885,0,0
0:2:37.159,294.308,37.473,0,0.000885,0,0
0:2:39.251,297.946,37.935,0,0.000885,0,0
0:2:41.351,301.345,38.3693,0,0.000885,0,0
0:2:43.446,306.331,39.0036,0,0.000885,0,0
0:2:45.551,310.321,39.5139,0,0.000885,0,0
0:2:47.652,314.071,39.9896,0,0.000885,0,0
0:2:49.747,318.239,40.5205,0,0.000885,0,0
0:2:51.848,322.283,41.0376,0,0.000885,0,0
0:2:53.945,326.975,41.6305,0,0.000885,0,0
0:2:56.055,331.139,42.1614,0,0.000885,0,0
0:2:58.154,335.129,42.6717,0,0.000885,0,0
0:3:0.236,339.35,43.2094,0,0.000885,0,0
0:3:2.343,342.638,43.6231,0,0.000885,0,0
0:3:4.446,347.855,44.2919,0,0.000885,0,0
0:3:6.556,351.903,44.809,0,0.000885,0,0
0:3:8.655,355.658,45.2848,0,0.000885,0,0
0:3:10.750,359.879,45.8226,0,0.000885,0,0
0:3:12.849,363.34,46.2638,0,0.000885,0,0
0:3:14.952,368.268,46.8912,0,0.000885,0,0
0:3:17.059,371.373,47.2842,0,0.000885,0,0
0:3:19.152,376.008,47.8772,0,0.000885,0,0
0:3:21.245,379.527,48.3254,0,0.000885,0,0
0:3:23.349,384.629,48.9735,0,0.000885,0,0
0:3:25.453,389.148,49.5457,0,0.000885,0,0
0:3:27.553,392.84,50.0215,0,0.000885,0,0
0:3:29.656,396.359,50.4627,0,0.000885,0,0
0:3:31.755,400.291,50.966,0,0.000885,0,0
0:3:33.857,405.1,51.5797,0,0.000885,0,0
0:3:35.960,408.854,52.0554,0,0.000885,0,0
0:3:38.059,413.191,52.607,0,0.000885,0,0
0:3:40.150,417.065,53.1034,0,0.000885,0,0
0:3:42.257,422.11,53.7446,0,0.000885,0,0
0:3:44.357,425.859,54.2204,0,0.000885,0,0
0:3:46.460,429.556,54.6961,0,0.000885,0,0
0:3:48.551,433.84,55.2408,0,0.000885,0,0
0:3:50.655,437.474,55.7027,0,0.000885,0,0
0:3:52.759,442.518,56.344,0,0.000885,0,0
0:3:54.851,446.272,56.8197,0,0.000885,0,0
0:3:56.956,450.084,57.3092,0,0.000885,0,0
0:3:59.047,455.009,57.9366,0,0.000885,0,0
0:4:1.156,458.002,58.3159,0,0.000885,0,0
0:4:3.258,462.459,58.8812,0,0.000885,0,0
0:4:5.352,467.032,59.4673,0,0.000885,0,0
0:4:7.453,470.729,59.9361,0,0.000885,0,0
0:4:9.555,475.306,60.5153,0,0.000885,0,0
0:4:11.659,479.291,61.0255,0,0.000885,0,0
0:4:13.756,483.691,61.584,0,0.000885,0,0
0:4:15.862,487.912,62.1218,0,0.000885,0,0
0:4:17.961,491.551,62.5837,0,0.000885,0,0
0:4:20.051,495.011,63.025,0,0.000885,0,0
0:4:22.160,499.878,63.6455,0,0.000885,0,0
0:4:24.262,503.632,64.1212,0,0.000885,0,0
0:4:26.364,507.796,64.6521,0,0.000885,0,0
0:4:28.462,511.666,65.1486,0,0.000885,0,0
0:4:30.566,516.123,65.7139,0,0.000885,0,0
0:4:32.663,520.406,66.2586,0,0.000885,0,0
0:4:34.756,524.512,66.7826,0,0.000885,0,0
0:4:36.859,528.498,67.2928,0,0.000885,0,0
0:4:38.965,533.191,67.8858,0,0.000885,0,0
0:4:41.070,537.003,68.3753,0,0.000885,0,0
0:4:43.159,541.402,68.9338,0,0.000885,0,0
0:4:45.262,545.098,69.4026,0,0.000885,0,0
0:4:47.370,549.498,69.9611,0,0.000885,0,0
0:4:49.463,553.016,70.4093,0,0.000885,0,0
0:4:51.560,557.825,71.0229,0,0.000885,0,0
0:4:53.665,562.046,71.5607,0,0.000885,0,0
0:4:55.753,565.565,72.0088,0,0.000885,0,0
0:4:57.855,570.2,72.6018,0,0.000885,0,0
0:4:59.963,573.838,73.0637,0,0.000885,0,0
0:5:2.072,578.469,73.6498,0,0.000885,0,0
0:5:4.167,582.281,74.1393,0,0.000885,0,0
0:5:6.272,586.796,74.7116,0,0.000885,0,0
0:5:8.368,590.493,75.1873,0,0.000885,0,0
0:5:10.462,594.661,75.7113,0,0.000885,0,0
0:5:12.573,598.651,76.2215,0,0.000885,0,0
0:5:14.669,603.17,76.8007,0,0.000885,0,0
0:5:16.780,606.929,77.2764,0,0.000885,0,0
0:5:18.874,611.862,77.9039,0,0.000885,0,0
0:5:20.979,614.735,78.2693,0,0.000885,0,0
0:5:23.073,619.375,78.8622,0,0.000885,0,0
0:5:25.167,623.481,79.3862,0,0.000885,0,0
0:5:27.279,627.649,79.9171,0,0.000885,0,0
0:5:29.362,632.052,80.4756,0,0.000885,0,0
0:5:31.474,635.811,80.9513,0,0.000885,0,0
0:5:33.568,639.801,81.4616,0,0.000885,0,0
0:5:35.658,643.969,81.9925,0,0.000885,0,0
0:5:37.767,648.195,82.5302,0,0.000885,0,0
0:5:39.871,652.536,83.0818,0,0.000885,0,0
0:5:41.978,656.473,83.5851,0,0.000885,0,0
0:5:44.071,660.579,84.1091,0,0.000885,0,0
0:5:46.178,664.747,84.64,0,0.000885,0,0
0:5:48.269,668.799,85.1571,0,0.000885,0,0
0:5:50.361,673.083,85.7018,0,0.000885,0,0
0:5:52.471,676.841,86.1776,0,0.000885,0,0
0:5:54.566,681.183,86.7292,0,0.000885,0,0
0:5:56.677,684.822,87.1911,0,0.000885,0,0
0:5:58.768,689.634,87.8047,0,0.000885,0,0
0:6:0.861,693.393,88.2874,0,0.000885,0,0
0:6:2.973,697.677,88.8321,0,0.000885,0,0
0:6:5.066,701.903,89.3698,0,0.000885,0,0
0:6:7.174,705.777,89.8594,0,0.000885,0,0
0:6:9.267,710.359,90.4454,0,0.000885,0,0
0:6:11.378,713.94,90.9005,0,0.000885,0,0
0:6:13.469,718.045,91.4245,0,0.000885,0,0
0:6:15.569,722.743,92.0243,0,0.000885,0,0
0:6:17.679,726.145,92.4587,0,0.000885,0,0
0:6:19.771,730.901,93.0585,0,0.000885,0,0
0:6:21.873,735.011,93.5825,0,0.000885,0,0
0:6:23.970,738.707,94.0583,0,0.000885,0,0
0:6:26.078,743.289,94.6374,0,0.000885,0,0
0:6:28.168,747.043,95.1132,0,0.000885,0,0
0:6:30.261,751.269,95.6579,0,0.000885,0,0
0:6:32.371,755.615,96.2094,0,0.000885,0,0
0:6:34.473,759.721,96.7334,0,0.000885,0,0
0:6:36.574,763.422,97.2023,0,0.000885,0,0
0:6:38.674,767.999,97.7814,0,0.000885,0,0
0:6:40.776,772.051,98.2986,0,0.000885,0,0
0:6:42.882,776.335,98.8432,0,0.000885,0,0
0:6:44.976,780.209,99.3397,0,0.000885,0,0
0:6:47.080,783.79,99.7947,0,0.000885,0,0
0:6:49.172,788.545,100.401,0,0.000885,0,0
0:6:51.281,792.126,100.857,0,0.000885,0,0
0:6:53.371,797.468,101.539,0,0.000885,0,0
0:6:55.464,800.987,101.987,0,0.000885,0,0
0:6:57.574,804.688,102.456,0,0.000885,0,0
0:6:59.676,808.562,102.953,0,0.000885,0,0
0:7:1.787,813.317,103.552,0,0.000885,0,0
0:7:3.879,817.307,104.063,0,0.000885,0,0
0:7:5.982,821.769,104.628,0,0.000885,0,0
0:7:8.079,825.35,105.09,0,0.000885,0,0
0:7:10.168,829.104,105.566,0,0.000885,0,0
0:7:12.287,833.917,106.179,0,0.000885,0,0
0:7:14.367,838.027,106.703,0,0.000885,0,0
0:7:16.487,841.844,107.186,0,0.000885,0,0
0:7:18.577,846.127,107.731,0,0.000885,0,0
0:7:20.668,849.766,108.193,0,0.000885,0,0
0:7:22.780,854.699,108.827,0,0.000885,0,0
0:7:24.871,858.867,109.351,0,0.000885,0,0
0:7:26.982,862.741,109.847,0,0.000885,0,0
0:7:29.077,866.909,110.378,0,0.000885,0,0
0:7:31.192,871.135,110.916,0,0.000885,0,0
0:7:33.291,874.832,111.385,0,0.000885,0,0
0:7:35.372,879.409,111.971,0,0.000885,0,0
0:7:37.478,883.403,112.481,0,0.000885,0,0
0:7:39.568,886.984,112.936,0,0.000885,0,0
0:7:41.669,891.619,113.522,0,0.000885,0,0
0:7:43.762,895.494,114.019,0,0.000885,0,0
0:7:45.882,900.191,114.618,0,0.000885,0,0
0:7:47.980,904.123,115.115,0,0.000885,0,0
0:7:50.061,908.233,115.639,0,0.000885,0,0
0:7:52.180,911.988,116.115,0,0.000885,0,0
0:7:54.271,916.156,116.646,0,0.000885,0,0
0:7:56.371,920.502,117.204,0,0.000885,0,0
0:7:58.480,924.727,117.742,0,0.000885,0,0
0:8:0.583,928.188,118.183,0,0.000885,0,0
0:8:2.691,932.708,118.755,0,0.000885,0,0
0:8:4.773,936.76,119.272,0,0.000885,0,0
0:8:6.889,940.986,119.81,0,0.000885,0,0
0:8:8.983,943.864,120.176,0,0.000885,0,0
0:8:11.082,949.731,120.92,0,0.000885,0,0
0:8:13.171,948.85,120.81,0,0.000885,0,0
0:8:15.274,958.183,122.003,0,0.000885,0,0
0:8:17.382,830.456,105.738,0,0.000885,0,0
0:8:19.479,803.513,102.304,0,0.000885,0,0
0:8:21.584,804.336,102.408,0,0.000885,0,0
0:8:22.501,782.909,99.6844,0,0.000885,0,0