Folder: Experiment-Files (part 75)

File: DataFile2021-07-15_062729.csv
Test ID:,Date Tested:,Time:,Test Type:,Diameter Avg. (mm):,Cyl. Corr. Factor:,Height (mm):,Age (days):,Weight (kN):,Break Type:,Ramp Rate (MPa/s):,Load at Break (kN):,Stress at Break (MPa):
12,7/15/2021,06:27,Cylinder,150,1,300,0,3.6,3,0.25,1581.42,89.49
Sample Time,Load (kN),Stress (MPa),Long. Strain,Trans. Strain,Chan1 Deflection (mm),Chan2 Deflection (mm)
0:0:8.592,5.15994,0.28958,0,0.000885,0,0
0:0:10.181,11.3786,0.641212,0,0.000885,0,0
0:0:11.772,19.0606,1.07558,0,0.000885,0,0
0:0:13.364,24.9857,1.41343,0,0.000885,0,0
0:0:14.977,33.1393,1.87537,0,0.000885,0,0
0:0:16.579,41.9334,2.3718,0,0.000885,0,0
0:0:18.173,48.4456,2.74411,0,0.000885,0,0
0:0:19.777,54.1349,3.06127,0,0.000885,0,0
0:0:21.384,62.0527,3.50943,0,0.000885,0,0
0:0:22.976,69.5613,3.93691,0,0.000885,0,0
0:0:24.586,75.6598,4.28164,0,0.000885,0,0
0:0:26.188,82.8748,4.68843,0,0.000885,0,0
0:0:27.781,90.7927,5.13659,0,0.000885,0,0
0:0:29.387,96.8912,5.48133,0,0.000885,0,0
0:0:30.996,104.044,5.88812,0,0.000885,0,0
0:0:32.590,111.317,6.30181,0,0.000885,0,0
0:0:34.182,118.007,6.68102,0,0.000885,0,0
0:0:35.800,125.275,7.08781,0,0.000885,0,0
0:0:37.393,132.081,7.47392,0,0.000885,0,0
0:0:38.994,139.527,7.8945,0,0.000885,0,0
0:0:40.606,146.862,8.30818,0,0.000885,0,0
0:0:42.199,153.428,8.6805,0,0.000885,0,0
0:0:43.793,160.527,9.08729,0,0.000885,0,0
0:0:45.413,167.742,9.49408,0,0.000885,0,0
0:0:47.008,174.953,9.90087,0,0.000885,0,0
0:0:48.601,181.874,10.2939,0,0.000885,0,0
0:0:50.212,189.383,10.7145,0,0.000885,0,0
0:0:51.805,196.011,11.0937,0,0.000885,0,0
0:0:53.386,202.519,11.4591,0,0.000885,0,0
0:0:54.986,210.085,11.8866,0,0.000885,0,0
0:0:56.578,217.242,12.2934,0,0.000885,0,0
0:0:58.160,224.101,12.6795,0,0.000885,0,0
0:0:59.762,231.494,13.1,0,0.000885,0,0
0:1:1.351,238.064,13.4724,0,0.000885,0,0
0:1:2.940,245.395,13.886,0,0.000885,0,0
0:1:4.554,252.668,14.2997,0,0.000885,0,0
0:1:6.148,258.94,14.6514,0,0.000885,0,0
0:1:7.735,266.391,15.0719,0,0.000885,0,0
0:1:9.331,273.37,15.4718,0,0.000885,0,0
0:1:10.940,280.407,15.8648,0,0.000885,0,0
0:1:12.534,288.209,16.3061,0,0.000885,0,0
0:1:14.129,294.134,16.6439,0,0.000885,0,0
0:1:15.736,301.932,17.0852,0,0.000885,0,0
0:1:17.336,308.738,17.4713,0,0.000885,0,0
0:1:18.939,315.948,17.8781,0,0.000885,0,0
0:1:20.540,322.754,18.2642,0,0.000885,0,0
0:1:22.142,330.614,18.7055,0,0.000885,0,0
0:1:23.748,337.767,19.1123,0,0.000885,0,0
0:1:25.357,343.807,19.457,0,0.000885,0,0
0:1:26.950,351.374,19.8845,0,0.000885,0,0
0:1:28.552,358.353,20.2775,0,0.000885,0,0
0:1:30.153,364.865,20.6498,0,0.000885,0,0
0:1:31.747,373.192,21.1186,0,0.000885,0,0
0:1:33.336,379.585,21.4772,0,0.000885,0,0
0:1:34.949,386.448,21.8702,0,0.000885,0,0
0:1:36.539,393.605,22.2701,0,0.000885,0,0
0:1:38.131,401.23,22.7044,0,0.000885,0,0
0:1:39.722,407.737,23.0699,0,0.000885,0,0
0:1:41.328,415.713,23.5249,0,0.000885,0,0
0:1:42.918,421.402,23.849,0,0.000885,0,0
0:1:44.517,428.502,24.2489,0,0.000885,0,0
0:1:46.108,435.948,24.6694,0,0.000885,0,0
0:1:47.692,443.399,25.09,0,0.000885,0,0
0:1:49.282,450.027,25.4692,0,0.000885,0,0
0:1:50.877,456.77,25.8484,0,0.000885,0,0
0:1:52.459,464.101,26.2621,0,0.000885,0,0
0:1:54.050,471.2,26.662,0,0.000885,0,0
0:1:55.655,477.886,27.0412,0,0.000885,0,0
0:1:57.244,485.39,27.4687,0,0.000885,0,0
0:1:58.837,492.547,27.8755,0,0.000885,0,0
0:2:0.440,499.055,28.2409,0,0.000885,0,0
0:2:2.052,506.684,28.6753,0,0.000885,0,0
0:2:3.656,513.249,29.0407,0,0.000885,0,0
0:2:5.263,520.113,29.4337,0,0.000885,0,0
0:2:6.852,527.034,29.8267,0,0.000885,0,0
0:2:8.434,534.716,30.2611,0,0.000885,0,0
0:2:10.055,541.58,30.6472,0,0.000885,0,0
0:2:11.651,549.146,31.0747,0,0.000885,0,0
0:2:13.249,555.303,31.4263,0,0.000885,0,0
0:2:14.862,562.633,31.84,0,0.000885,0,0
0:2:16.456,570.2,32.2675,0,0.000885,0,0
0:2:18.056,576.418,32.6191,0,0.000885,0,0
0:2:19.665,584.1,33.0535,0,0.000885,0,0
0:2:21.259,591.787,33.4878,0,0.000885,0,0
0:2:22.845,598.241,33.8533,0,0.000885,0,0
0:2:24.466,605.287,34.2532,0,0.000885,0,0
0:2:26.071,612.213,34.6462,0,0.000885,0,0
0:2:27.657,619.433,35.0529,0,0.000885,0,0
0:2:29.247,626.652,35.4597,0,0.000885,0,0
0:2:30.857,633.462,35.8458,0,0.000885,0,0
0:2:32.444,640.215,36.2319,0,0.000885,0,0
0:2:34.055,647.959,36.6663,0,0.000885,0,0
0:2:35.659,654.711,37.0524,0,0.000885,0,0
0:2:37.259,661.873,37.4523,0,0.000885,0,0
0:2:38.857,669.271,37.8729,0,0.000885,0,0
0:2:40.472,676.139,38.259,0,0.000885,0,0
0:2:42.060,682.593,38.6244,0,0.000885,0,0
0:2:43.657,689.933,39.045,0,0.000885,0,0
0:2:45.268,697.21,39.4518,0,0.000885,0,0
0:2:46.860,704.665,39.8793,0,0.000885,0,0
0:2:48.447,711.413,40.2585,0,0.000885,0,0
0:2:50.064,718.988,40.686,0,0.000885,0,0
0:2:51.663,725.856,41.0721,0,0.000885,0,0
0:2:53.263,732.431,41.4444,0,0.000885,0,0
0:2:54.870,739.766,41.865,0,0.000885,0,0
0:2:56.466,746.754,42.258,0,0.000885,0,0
0:2:58.052,754.383,42.6923,0,0.000885,0,0
0:2:59.667,761.073,43.0647,0,0.000885,0,0
0:3:1.264,768.297,43.4783,0,0.000885,0,0
0:3:2.863,774.929,43.8507,0,0.000885,0,0
0:3:4.463,781.619,44.2299,0,0.000885,0,0
0:3:6.069,789.31,44.6642,0,0.000885,0,0
0:3:7.660,796.352,45.0641,0,0.000885,0,0
0:3:9.269,803.513,45.4709,0,0.000885,0,0
0:3:10.871,810.439,45.8639,0,0.000885,0,0
0:3:12.455,817.014,46.2362,0,0.000885,0,0
0:3:14.071,824.295,46.643,0,0.000885,0,0
0:3:15.677,831.453,47.0498,0,0.000885,0,0
0:3:17.269,838.792,47.4635,0,0.000885,0,0
0:3:18.859,845.896,47.8703,0,0.000885,0,0
0:3:20.474,853.058,48.2702,0,0.000885,0,0
0:3:22.065,859.103,48.6149,0,0.000885,0,0
0:3:23.663,867.025,49.0631,0,0.000885,0,0
0:3:25.274,874.129,49.463,0,0.000885,0,0
0:3:26.862,880.646,49.8353,0,0.000885,0,0
0:3:28.467,888.51,50.2766,0,0.000885,0,0
0:3:30.081,895.787,50.6903,0,0.000885,0,0
0:3:31.669,902.01,51.0419,0,0.000885,0,0
0:3:33.260,908.585,51.4142,0,0.000885,0,0
0:3:34.875,916.04,51.8348,0,0.000885,0,0
0:3:36.472,923.38,52.2554,0,0.000885,0,0
0:3:38.060,930.657,52.6622,0,0.000885,0,0
0:3:39.658,937.467,53.0483,0,0.000885,0,0
0:3:41.257,944.922,53.4688,0,0.000885,0,0
0:3:42.854,951.848,53.8618,0,0.000885,0,0
0:3:44.470,958.423,54.2342,0,0.000885,0,0
0:3:46.068,966.051,54.6685,0,0.000885,0,0
0:3:47.665,972.626,55.0408,0,0.000885,0,0
0:3:49.263,979.73,55.4407,0,0.000885,0,0
0:3:50.868,986.656,55.8337,0,0.000885,0,0
0:3:52.464,994.226,56.2612,0,0.000885,0,0
0:3:54.053,1000.98,56.6404,0,0.000885,0,0
0:3:55.663,1008.08,57.0472,0,0.000885,0,0
0:3:57.247,1014.48,57.4057,0,0.000885,0,0
0:3:58.856,1022.05,57.8332,0,0.000885,0,0
0:4:0.473,1029.63,58.2676,0,0.000885,0,0
0:4:2.063,1036.37,58.6468,0,0.000885,0,0
0:4:3.648,1043.13,59.026,0,0.000885,0,0
0:4:5.260,1051.17,59.4811,0,0.000885,0,0
0:4:6.867,1057.33,59.8327,0,0.000885,0,0
0:4:8.454,1064.14,60.2188,0,0.000885,0,0
0:4:10.069,1072.12,60.667,0,0.000885,0,0
0:4:11.656,1078.64,61.0393,0,0.000885,0,0
0:4:13.254,1085.86,61.4461,0,0.000885,0,0
0:4:14.860,1093.66,61.8873,0,0.000885,0,0
0:4:16.460,1100.01,62.2459,0,0.000885,0,0
0:4:18.069,1106.81,62.632,0,0.000885,0,0
0:4:19.676,1114.8,63.087,0,0.000885,0,0
0:4:21.273,1122.07,63.4938,0,0.000885,0,0
0:4:22.858,1129.47,63.9144,0,0.000885,0,0
0:4:24.479,1135.93,64.2798,0,0.000885,0,0
0:4:26.082,1142.21,64.6383,0,0.000885,0,0
0:4:27.672,1149.55,65.052,0,0.000885,0,0
0:4:29.273,1156.3,65.4312,0,0.000885,0,0
0:4:30.871,1164.1,65.8725,0,0.000885,0,0
0:4:32.455,1171.85,66.3138,0,0.000885,0,0
0:4:34.052,1178.13,66.6654,0,0.000885,0,0
0:4:35.667,1184.24,67.017,0,0.000885,0,0
0:4:37.256,1191.81,67.4445,0,0.000885,0,0
0:4:38.863,1198.5,67.8237,0,0.000885,0,0
0:4:40.479,1207.25,68.3133,0,0.000885,0,0
0:4:42.076,1213.29,68.658,0,0.000885,0,0
0:4:43.674,1220.1,69.0441,0,0.000885,0,0
0:4:45.285,1227.26,69.4509,0,0.000885,0,0
0:4:46.872,1233.95,69.8301,0,0.000885,0,0
0:4:48.470,1241.53,70.2576,0,0.000885,0,0
0:4:50.084,1248.75,70.6644,0,0.000885,0,0
0:4:51.672,1256.32,71.0918,0,0.000885,0,0
0:4:53.271,1263.01,71.4711,0,0.000885,0,0
0:4:54.889,1269.76,71.8572,0,0.000885,0,0
0:4:56.484,1276.75,72.2502,0,0.000885,0,0
0:4:58.074,1283.79,72.6501,0,0.000885,0,0
0:4:59.683,1290.78,73.0431,0,0.000885,0,0
0:5:1.283,1297.7,73.4361,0,0.000885,0,0
0:5:2.871,1305.16,73.8566,0,0.000885,0,0
0:5:4.479,1312.67,74.2841,0,0.000885,0,0
0:5:6.075,1319.19,74.6495,0,0.000885,0,0
0:5:7.673,1326.82,75.0839,0,0.000885,0,0
0:5:9.282,1332.87,75.4217,0,0.000885,0,0
0:5:10.889,1341.08,75.8906,0,0.000885,0,0
0:5:12.476,1347.07,76.2284,0,0.000885,0,0
0:5:14.074,1354.52,76.649,0,0.000885,0,0
0:5:15.684,1361.98,77.0696,0,0.000885,0,0
0:5:17.273,1369.26,77.4833,0,0.000885,0,0
0:5:18.880,1376.07,77.8694,0,0.000885,0,0
0:5:20.484,1382.81,78.2486,0,0.000885,0,0
0:5:22.074,1390.04,78.6623,0,0.000885,0,0
0:5:23.673,1397.14,79.0622,0,0.000885,0,0
0:5:25.290,1404.53,79.4828,0,0.000885,0,0
0:5:26.878,1410.99,79.8482,0,0.000885,0,0
0:5:28.477,1418.74,80.2826,0,0.000885,0,0
0:5:30.085,1425.9,80.6893,0,0.000885,0,0
0:5:31.677,1431.71,81.0203,0,0.000885,0,0
0:5:33.274,1439.64,81.4685,0,0.000885,0,0
0:5:34.890,1446.27,81.8408,0,0.000885,0,0
0:5:36.486,1453.55,82.2545,0,0.000885,0,0
0:5:38.077,1460.59,82.6544,0,0.000885,0,0
0:5:39.684,1467.99,83.068,0,0.000885,0,0
0:5:41.282,1474.86,83.461,0,0.000885,0,0
0:5:42.879,1482.44,83.8885,0,0.000885,0,0
0:5:44.489,1489.69,84.3022,0,0.000885,0,0
0:5:46.089,1495.1,84.6056,0,0.000885,0,0
0:5:47.675,1503.58,85.0882,0,0.000885,0,0
0:5:49.283,1510.71,85.4881,0,0.000885,0,0
0:5:50.886,1516.59,85.819,0,0.000885,0,0
0:5:52.476,1524.54,86.2741,0,0.000885,0,0
0:5:54.084,1532.2,86.7016,0,0.000885,0,0
0:5:55.686,1538.32,87.0532,0,0.000885,0,0
0:5:57.282,1545.68,87.4669,0,0.000885,0,0
0:5:58.880,1552.22,87.8392,0,0.000885,0,0
0:6:0.490,1558.34,88.1839,0,0.000885,0,0
0:6:2.077,1566.29,88.6321,0,0.000885,0,0
0:6:3.671,1573.71,89.0527,0,0.000885,0,0
0:6:5.287,1580.72,89.4526,0,0.000885,0,0
0:6:6.883,1579.42,89.3767,0,0.000885,0,0
0:6:8.478,1461.94,82.7302,0,0.000885,0,0
0:6:10.090,1460.48,82.6475,0,0.000885,0,0
0:6:10.402,1138.98,64.4522,0,0.000885,0,0

File: DataFile2021-07-15_063533.csv
Test ID:,Date Tested:,Time:,Test Type:,Diameter Avg. (mm):,Cyl. Corr. Factor:,Height (mm):,Age (days):,Weight (kN):,Break Type:,Ramp Rate (MPa/s):,Load at Break (kN):,Stress at Break (MPa):
12,7/15/2021,06:35,Cylinder,150,1,300,0,3.6,3,0.25,899.37,50.9
Sample Time,Load (kN),Stress (MPa),Long. Strain,Trans. Strain,Chan1 Deflection (mm),Chan2 Deflection (mm)
0:0:12.432,5.68928,0.324054,0,0.000885,0,0
0:0:13.426,11.4942,0.648107,0,0.000885,0,0
0:0:14.417,14.0742,0.799792,0,0.000885,0,0
0:0:15.411,17.8285,1.00663,0,0.000885,0,0
0:0:16.416,22.1699,1.25485,0,0.000885,0,0
0:0:17.412,26.3335,1.48927,0,0.000885,0,0
0:0:18.425,30.7328,1.73748,0,0.000885,0,0
0:0:19.429,36.422,2.06153,0,0.000885,0,0
0:0:20.424,41.2306,2.33043,0,0.000885,0,0
0:0:21.431,46.9198,2.65448,0,0.000885,0,0
0:0:22.427,50.4962,2.85443,0,0.000885,0,0
0:0:23.432,54.4863,3.08196,0,0.000885,0,0
0:0:24.440,57.6534,3.26122,0,0.000885,0,0
0:0:25.435,61.8169,3.49564,0,0.000885,0,0
0:0:26.428,66.9769,3.79212,0,0.000885,0,0
0:0:27.432,72.0834,4.0817,0,0.000885,0,0
0:0:28.434,76.1269,4.30922,0,0.000885,0,0
0:0:29.444,81.229,4.5988,0,0.000885,0,0
0:0:30.441,85.3347,4.82633,0,0.000885,0,0
0:0:31.434,88.9155,5.03317,0,0.000885,0,0
0:0:32.428,94.1911,5.32965,0,0.000885,0,0
0:0:33.440,98.1811,5.55717,0,0.000885,0,0
0:0:34.442,102.754,5.81228,0,0.000885,0,0
0:0:35.439,107.095,6.06049,0,0.000885,0,0
0:0:36.434,111.553,6.3156,0,0.000885,0,0
0:0:37.430,115.774,6.55002,0,0.000885,0,0
0:0:38.437,120,6.79134,0,0.000885,0,0
0:0:39.445,125.275,7.08781,0,0.000885,0,0
0:0:40.441,129.501,7.32913,0,0.000885,0,0
0:0:41.436,133.549,7.55665,0,0.000885,0,0
0:0:42.433,138.531,7.83934,0,0.000885,0,0
0:0:43.435,141.934,8.03239,0,0.000885,0,0
0:0:44.444,147.094,8.32197,0,0.000885,0,0
0:0:45.442,151.613,8.57708,0,0.000885,0,0
0:0:46.435,155.599,8.80461,0,0.000885,0,0
0:0:47.430,160.292,9.0735,0,0.000885,0,0
0:0:48.441,164.575,9.31482,0,0.000885,0,0
0:0:49.444,169.032,9.56303,0,0.000885,0,0
0:0:50.438,173.196,9.79745,0,0.000885,0,0
0:0:51.432,177.359,10.0388,0,0.000885,0,0
0:0:52.428,182.871,10.349,0,0.000885,0,0
0:0:53.438,186.919,10.5766,0,0.000885,0,0
0:0:54.444,191.727,10.8523,0,0.000885,0,0
0:0:55.436,195.717,11.073,0,0.000885,0,0
0:0:56.425,199.058,11.266,0,0.000885,0,0
0:0:57.424,204.396,11.5694,0,0.000885,0,0
0:0:58.422,208.679,11.8107,0,0.000885,0,0
0:0:59.425,213.137,12.0589,0,0.000885,0,0
0:1:0.422,217.945,12.3347,0,0.000885,0,0
0:1:1.419,221.757,12.5485,0,0.000885,0,0
0:1:2.428,226.392,12.8105,0,0.000885,0,0
0:1:3.426,231.316,13.0931,0,0.000885,0,0
0:1:4.426,234.777,13.2862,0,0.000885,0,0
0:1:5.434,239.412,13.5482,0,0.000885,0,0
0:1:6.430,242.989,13.7481,0,0.000885,0,0
0:1:7.416,247.739,14.017,0,0.000885,0,0
0:1:8.421,253.135,14.3273,0,0.000885,0,0
0:1:9.429,256.947,14.541,0,0.000885,0,0
0:1:10.417,261.934,14.8237,0,0.000885,0,0
0:1:11.428,265.158,15.003,0,0.000885,0,0
0:1:12.423,268.913,15.2167,0,0.000885,0,0
0:1:13.428,274.193,15.5132,0,0.000885,0,0
0:1:14.428,278.356,15.7545,0,0.000885,0,0
0:1:15.424,284.103,16.0786,0,0.000885,0,0
0:1:16.421,289.148,16.3613,0,0.000885,0,0
0:1:17.418,293.133,16.5888,0,0.000885,0,0
0:1:18.429,298.413,16.8853,0,0.000885,0,0
0:1:19.430,301.696,17.0714,0,0.000885,0,0
0:1:20.437,305.393,17.2852,0,0.000885,0,0
0:1:21.423,309.556,17.5196,0,0.000885,0,0
0:1:22.420,313.84,17.7609,0,0.000885,0,0
0:1:23.420,318.826,18.0436,0,0.000885,0,0
0:1:24.423,321.873,18.2159,0,0.000885,0,0
0:1:25.421,327.856,18.5538,0,0.000885,0,0
0:1:26.410,332.958,18.8434,0,0.000885,0,0
0:1:27.418,337.825,19.1192,0,0.000885,0,0
0:1:28.423,342.166,19.3605,0,0.000885,0,0
0:1:29.418,346.098,19.588,0,0.000885,0,0
0:1:30.407,349.088,19.7535,0,0.000885,0,0
0:1:31.425,354.016,20.0362,0,0.000885,0,0
0:1:32.423,358.353,20.2775,0,0.000885,0,0
0:1:33.432,363.046,20.5464,0,0.000885,0,0
0:1:34.425,368.148,20.836,0,0.000885,0,0
0:1:35.414,371.551,21.0221,0,0.000885,0,0
0:1:36.423,376.186,21.291,0,0.000885,0,0
0:1:37.431,380.937,21.5599,0,0.000885,0,0
0:1:38.437,386.564,21.8771,0,0.000885,0,0
0:1:39.434,390.438,22.0908,0,0.000885,0,0
0:1:40.421,393.837,22.2839,0,0.000885,0,0
0:1:41.410,398,22.5252,0,0.000885,0,0
0:1:42.418,402.342,22.7665,0,0.000885,0,0
0:1:43.438,407.564,23.063,0,0.000885,0,0
0:1:44.440,411.549,23.2905,0,0.000885,0,0
0:1:45.429,416.652,23.5801,0,0.000885,0,0
0:1:46.415,420.642,23.8007,0,0.000885,0,0
0:1:47.424,424.747,24.0351,0,0.000885,0,0
0:1:48.441,429.907,24.3247,0,0.000885,0,0
0:1:49.444,433.84,24.5522,0,0.000885,0,0
0:1:50.432,438.003,24.7867,0,0.000885,0,0
0:1:51.428,442.167,25.0211,0,0.000885,0,0
0:1:52.415,446.152,25.2486,0,0.000885,0,0
0:1:53.422,451.668,25.5589,0,0.000885,0,0
0:1:54.437,456.534,25.8347,0,0.000885,0,0
0:1:55.425,461.049,26.0898,0,0.000885,0,0
0:1:56.413,464.982,26.3104,0,0.000885,0,0
0:1:57.421,469.261,26.5517,0,0.000885,0,0
0:1:58.422,473.722,26.8068,0,0.000885,0,0
0:1:59.422,477.944,27.0481,0,0.000885,0,0
0:2:0.421,481.814,27.2619,0,0.000885,0,0
0:2:1.429,487.503,27.5859,0,0.000885,0,0
0:2:2.416,491.199,27.7928,0,0.000885,0,0
0:2:3.425,496.008,28.0686,0,0.000885,0,0
0:2:4.426,500.114,28.303,0,0.000885,0,0
0:2:5.434,503.926,28.5167,0,0.000885,0,0
0:2:6.420,508.498,28.7718,0,0.000885,0,0
0:2:7.439,513.663,29.0683,0,0.000885,0,0
0:2:8.445,518.996,29.3717,0,0.000885,0,0
0:2:9.438,522.808,29.5854,0,0.000885,0,0
0:2:10.436,526.505,29.7922,0,0.000885,0,0
0:2:11.435,531.02,30.0474,0,0.000885,0,0
0:2:12.420,535.419,30.2956,0,0.000885,0,0
0:2:13.423,539.351,30.5231,0,0.000885,0,0
0:2:14.422,544.16,30.792,0,0.000885,0,0
0:2:15.441,548.853,31.0609,0,0.000885,0,0
0:2:16.430,552.896,31.2884,0,0.000885,0,0
0:2:17.438,557.473,31.5435,0,0.000885,0,0
0:2:18.437,561.753,31.7917,0,0.000885,0,0
0:2:19.441,566.21,32.0399,0,0.000885,0,0
0:2:20.437,570.2,32.2675,0,0.000885,0,0
0:2:21.436,575.066,32.5433,0,0.000885,0,0
0:2:22.430,580.053,32.8259,0,0.000885,0,0
0:2:23.427,584.216,33.0604,0,0.000885,0,0
0:2:24.434,589.26,33.343,0,0.000885,0,0
0:2:25.435,592.841,33.5499,0,0.000885,0,0
0:2:26.437,597.596,33.8188,0,0.000885,0,0
0:2:27.426,601.884,34.0601,0,0.000885,0,0
0:2:28.439,605.759,34.2807,0,0.000885,0,0
0:2:29.440,610.63,34.5565,0,0.000885,0,0
0:2:30.431,614.913,34.7978,0,0.000885,0,0
0:2:31.436,619.962,35.0805,0,0.000885,0,0
0:2:32.428,623.427,35.2805,0,0.000885,0,0
0:2:33.434,627.947,35.5356,0,0.000885,0,0
0:2:34.441,632.172,35.7769,0,0.000885,0,0
0:2:35.432,635.402,35.9562,0,0.000885,0,0
0:2:36.424,641.269,36.2871,0,0.000885,0,0
0:2:37.416,646.789,36.5974,0,0.000885,0,0
0:2:38.426,650.428,36.8042,0,0.000885,0,0
0:2:39.435,655.063,37.0662,0,0.000885,0,0
0:2:40.428,659.351,37.3144,0,0.000885,0,0
0:2:41.417,663.047,37.5213,0,0.000885,0,0
0:2:42.421,667.918,37.7971,0,0.000885,0,0
0:2:43.430,671.971,38.0246,0,0.000885,0,0
0:2:44.431,676.663,38.2935,0,0.000885,0,0
0:2:45.432,680.422,38.5072,0,0.000885,0,0
0:2:46.424,683.945,38.7003,0,0.000885,0,0
0:2:47.428,689.288,39.0036,0,0.000885,0,0
0:2:48.439,692.748,39.2036,0,0.000885,0,0
0:2:49.441,697.388,39.4656,0,0.000885,0,0
0:2:50.433,700.613,39.6449,0,0.000885,0,0
0:2:51.425,703.139,39.7896,0,0.000885,0,0
0:2:52.429,706.836,39.9965,0,0.000885,0,0
0:2:53.433,713.059,40.3481,0,0.000885,0,0
0:2:54.442,720.63,40.7825,0,0.000885,0,0
0:2:55.444,726.15,41.0928,0,0.000885,0,0
0:2:56.434,732.195,41.4306,0,0.000885,0,0
0:2:57.426,737.244,41.7202,0,0.000885,0,0
0:2:58.428,739.472,41.8443,0,0.000885,0,0
0:2:59.438,743.053,42.0511,0,0.000885,0,0
0:3:0.427,745.402,42.1821,0,0.000885,0,0
0:3:1.439,746.398,42.2373,0,0.000885,0,0
0:3:2.427,745.286,42.1752,0,0.000885,0,0
0:3:3.434,741.585,41.9684,0,0.000885,0,0
0:3:4.443,740.705,41.9132,0,0.000885,0,0
0:3:5.442,740.411,41.8994,0,0.000885,0,0
0:3:6.432,742.057,41.9891,0,0.000885,0,0
0:3:7.432,746.398,42.2373,0,0.000885,0,0
0:3:8.450,749.04,42.389,0,0.000885,0,0
0:3:9.455,752.212,42.5682,0,0.000885,0,0
0:3:10.447,755.851,42.7751,0,0.000885,0,0
0:3:11.440,760.664,43.044,0,0.000885,0,0
0:3:12.429,766.179,43.3542,0,0.000885,0,0
0:3:13.433,771.642,43.6645,0,0.000885,0,0
0:3:14.440,777.861,44.0161,0,0.000885,0,0
0:3:15.442,784.377,44.3884,0,0.000885,0,0
0:3:16.434,790.542,44.7332,0,0.000885,0,0
0:3:17.435,796.116,45.0503,0,0.000885,0,0
0:3:18.448,802.339,45.402,0,0.000885,0,0
0:3:19.445,808.74,45.7674,0,0.000885,0,0
0:3:20.436,814.256,46.0777,0,0.000885,0,0
0:3:21.429,821.182,46.4707,0,0.000885,0,0
0:3:22.422,828.401,46.8775,0,0.000885,0,0
0:3:23.431,836.795,47.3532,0,0.000885,0,0
0:3:24.434,843.783,47.7462,0,0.000885,0,0
0:3:25.437,851.412,48.1806,0,0.000885,0,0
0:3:26.442,858.631,48.5874,0,0.000885,0,0
0:3:27.434,865.557,48.9804,0,0.000885,0,0
0:3:28.448,871.722,49.332,0,0.000885,0,0
0:3:29.451,872.132,49.3527,0,0.000885,0,0
0:3:30.442,850.709,48.1392,0,0.000885,0,0
0:3:31.441,857.693,48.5322,0,0.000885,0,0
0:3:32.437,860.393,48.6908,0,0.000885,0,0
0:3:33.436,867.732,49.1045,0,0.000885,0,0
0:3:34.443,869.374,49.1941,0,0.000885,0,0
0:3:35.442,874.187,49.4699,0,0.000885,0,0
0:3:36.445,880.232,49.8077,0,0.000885,0,0
0:3:37.435,886.806,50.18,0,0.000885,0,0
0:3:38.446,892.972,50.5317,0,0.000885,0,0
0:3:39.445,898.607,50.8488,0,0.000885,0,0
0:3:40.432,892.562,50.511,0,0.000885,0,0
0:3:41.424,895.142,50.6558,0,0.000885,0,0
0:3:42.434,898.959,50.8695,0,0.000885,0,0
0:3:43.448,897.197,50.773,0,0.000885,0,0
0:3:44.450,852.644,48.2495,0,0.000885,0,0
0:3:45.442,837.912,47.4152,0,0.000885,0,0
0:3:46.439,831.631,47.0636,0,0.000885,0,0
0:3:47.429,822.005,46.5189,0,0.000885,0,0
0:3:48.429,807.917,45.7191,0,0.000885,0,0
0:3:49.433,793.007,44.878,0,0.000885,0,0
0:3:50.445,708.13,40.0723,0,0.000885,0,0
0:3:50.561,708.13,40.0723,0,0.000885,0,0