Folder: Experiment-Files (part 49)

File: DataFile2021-06-29_052514.csv
Test ID:,Date Tested:,Time:,Test Type:,Diameter Avg. (mm):,Cyl. Corr. Factor:,Height (mm):,Age (days):,Weight (kN):,Break Type:,Ramp Rate (MPa/s):,Load at Break (kN):,Stress at Break (MPa):
12,6/29/2021,05:25,Cylinder,100,1,200,0,3.6,3,0.23,260.47,33.16
Sample Time,Load (kN),Stress (MPa),Long. Strain,Trans. Strain,Chan1 Deflection (mm),Chan2 Deflection (mm)
0:0:18.742,6.04068,0.772213,0,0.000885,0,0
0:0:19.337,13.0778,1.66853,0,0.000885,0,0
0:0:19.930,11.1428,1.42032,0,0.000885,0,0
0:0:20.524,10.6757,1.35827,0,0.000885,0,0
0:0:21.117,10.3243,1.3169,0,0.000885,0,0
0:0:21.713,10.4978,1.33758,0,0.000885,0,0
0:0:22.308,10.8492,1.37895,0,0.000885,0,0
0:0:22.903,12.0235,1.53064,0,0.000885,0,0
0:0:23.498,13.7228,1.74437,0,0.000885,0,0
0:0:24.101,15.5421,1.9788,0,0.000885,0,0
0:0:24.708,16.2449,2.06843,0,0.000885,0,0
0:0:25.314,18.3,2.33043,0,0.000885,0,0
0:0:25.913,19.2386,2.44764,0,0.000885,0,0
0:0:26.509,20.3506,2.59243,0,0.000885,0,0
0:0:27.104,21.9342,2.79238,0,0.000885,0,0
0:0:27.700,22.6993,2.8889,0,0.000885,0,0
0:0:28.297,24.9278,3.17159,0,0.000885,0,0
0:0:28.897,25.6307,3.26122,0,0.000885,0,0
0:0:29.503,26.9206,3.42669,0,0.000885,0,0
0:0:30.108,27.9749,3.56459,0,0.000885,0,0
0:0:30.710,28.9134,3.6818,0,0.000885,0,0
0:0:31.307,30.2657,3.85417,0,0.000885,0,0
0:0:31.903,31.142,3.96449,0,0.000885,0,0
0:0:32.502,32.3163,4.11617,0,0.000885,0,0
0:0:33.100,33.3706,4.24717,0,0.000885,0,0
0:0:33.697,34.9541,4.45401,0,0.000885,0,0
0:0:34.294,35.8927,4.57122,0,0.000885,0,0
0:0:34.902,36.9514,4.70222,0,0.000885,0,0
0:0:35.508,38.2992,4.87459,0,0.000885,0,0
0:0:36.107,39.2956,5.00559,0,0.000885,0,0
0:0:36.707,40.8213,5.19865,0,0.000885,0,0
0:0:37.304,41.8177,5.32275,0,0.000885,0,0
0:0:37.899,42.8141,5.45375,0,0.000885,0,0
0:0:38.495,43.6949,5.56407,0,0.000885,0,0
0:0:39.090,44.8692,5.71575,0,0.000885,0,0
0:0:39.697,46.3327,5.90191,0,0.000885,0,0
0:0:40.303,47.6227,6.06049,0,0.000885,0,0
0:0:40.907,48.9749,6.23286,0,0.000885,0,0
0:0:41.502,49.7934,6.34318,0,0.000885,0,0
0:0:42.097,50.6741,6.45349,0,0.000885,0,0
0:0:42.695,52.4935,6.68102,0,0.000885,0,0
0:0:43.293,53.432,6.80513,0,0.000885,0,0
0:0:43.892,54.7798,6.97749,0,0.000885,0,0
0:0:44.500,55.6606,7.08781,0,0.000885,0,0
0:0:45.105,56.9506,7.25328,0,0.000885,0,0
0:0:45.704,58.1827,7.40497,0,0.000885,0,0
0:0:46.302,59.6462,7.59113,0,0.000885,0,0
0:0:46.901,60.8205,7.74281,0,0.000885,0,0
0:0:47.498,61.5234,7.83244,0,0.000885,0,0
0:0:48.096,62.9913,8.0186,0,0.000885,0,0
0:0:48.689,64.1656,8.17029,0,0.000885,0,0
0:0:49.292,65.3355,8.32197,0,0.000885,0,0
0:0:49.900,66.452,8.45987,0,0.000885,0,0
0:0:50.504,67.742,8.62534,0,0.000885,0,0
0:0:51.103,68.3291,8.70118,0,0.000885,0,0
0:0:51.702,69.7926,8.88734,0,0.000885,0,0
0:0:52.298,71.1449,9.05971,0,0.000885,0,0
0:0:52.893,72.1413,9.18382,0,0.000885,0,0
0:0:53.490,73.3111,9.3355,0,0.000885,0,0
0:0:54.087,74.4276,9.4734,0,0.000885,0,0
0:0:54.695,75.9534,9.67334,0,0.000885,0,0
0:0:55.301,77.3012,9.84571,0,0.000885,0,0
0:0:55.903,78.1819,9.95603,0,0.000885,0,0
0:0:56.499,79.294,10.0939,0,0.000885,0,0
0:0:57.096,80.5262,10.2525,0,0.000885,0,0
0:0:57.695,82.2298,10.4662,0,0.000885,0,0
0:0:58.293,82.4033,10.4938,0,0.000885,0,0
0:0:58.892,84.0447,10.7007,0,0.000885,0,0
0:0:59.501,84.9833,10.8179,0,0.000885,0,0
0:1:0.106,86.6869,11.0385,0,0.000885,0,0
0:1:0.703,87.9769,11.204,0,0.000885,0,0
0:1:1.301,88.8577,11.3143,0,0.000885,0,0
0:1:1.900,90.6725,11.5418,0,0.000885,0,0
0:1:2.497,91.1441,11.6039,0,0.000885,0,0
0:1:3.093,92.3139,11.7556,0,0.000885,0,0
0:1:3.688,94.0176,11.9693,0,0.000885,0,0
0:1:4.292,94.8361,12.0727,0,0.000885,0,0
0:1:4.899,95.4232,12.1486,0,0.000885,0,0
0:1:5.504,97.1269,12.3692,0,0.000885,0,0
0:1:6.102,98.6482,12.5622,0,0.000885,0,0
0:1:6.698,99.4133,12.6588,0,0.000885,0,0
0:1:7.294,100.174,12.7553,0,0.000885,0,0
0:1:7.888,101.526,12.9277,0,0.000885,0,0
0:1:8.487,103.283,13.1483,0,0.000885,0,0
0:1:9.085,104.515,13.3069,0,0.000885,0,0
0:1:9.692,105.045,13.3758,0,0.000885,0,0
0:1:10.297,106.335,13.5413,0,0.000885,0,0
0:1:10.898,107.095,13.6378,0,0.000885,0,0
0:1:11.493,108.563,13.824,0,0.000885,0,0
0:1:12.090,109.795,13.9826,0,0.000885,0,0
0:1:12.691,111.904,14.2515,0,0.000885,0,0
0:1:13.288,112.082,14.2721,0,0.000885,0,0
0:1:13.886,113.608,14.4652,0,0.000885,0,0
0:1:14.485,114.484,14.5755,0,0.000885,0,0
0:1:15.092,116.423,14.8237,0,0.000885,0,0
0:1:15.696,117.184,14.9203,0,0.000885,0,0
0:1:16.295,118.416,15.0788,0,0.000885,0,0
0:1:16.893,119.822,15.2581,0,0.000885,0,0
0:1:17.487,120.467,15.3408,0,0.000885,0,0
0:1:18.083,121.641,15.4856,0,0.000885,0,0
0:1:18.680,123.109,15.6718,0,0.000885,0,0
0:1:19.287,124.457,15.8442,0,0.000885,0,0
0:1:19.893,125.28,15.9476,0,0.000885,0,0
0:1:20.499,126.921,16.1613,0,0.000885,0,0
0:1:21.094,127.566,16.244,0,0.000885,0,0
0:1:21.688,128.211,16.3268,0,0.000885,0,0
0:1:22.284,130.088,16.5612,0,0.000885,0,0
0:1:22.879,130.613,16.6302,0,0.000885,0,0
0:1:23.478,132.432,16.8646,0,0.000885,0,0
0:1:24.075,133.255,16.968,0,0.000885,0,0
0:1:24.683,134.839,17.1679,0,0.000885,0,0
0:1:25.288,135.484,17.2507,0,0.000885,0,0
0:1:25.888,137.125,17.4575,0,0.000885,0,0
0:1:26.486,138.415,17.623,0,0.000885,0,0
0:1:27.084,139.47,17.7609,0,0.000885,0,0
0:1:27.681,140.76,17.9195,0,0.000885,0,0
0:1:28.277,142.05,18.0849,0,0.000885,0,0
0:1:28.872,142.872,18.1884,0,0.000885,0,0
0:1:29.474,143.869,18.3194,0,0.000885,0,0
0:1:30.082,145.159,18.4848,0,0.000885,0,0
0:1:30.687,146.627,18.671,0,0.000885,0,0
0:1:31.285,147.507,18.7813,0,0.000885,0,0
0:1:31.881,148.446,18.8985,0,0.000885,0,0
0:1:32.476,150.03,19.1054,0,0.000885,0,0
0:1:33.071,151.026,19.2295,0,0.000885,0,0
0:1:33.670,152.196,19.3812,0,0.000885,0,0
0:1:34.277,153.197,19.5053,0,0.000885,0,0
0:1:34.882,154.66,19.6914,0,0.000885,0,0
0:1:35.484,155.305,19.7742,0,0.000885,0,0
0:1:36.080,156.657,19.9465,0,0.000885,0,0
0:1:36.674,157.947,20.112,0,0.000885,0,0
0:1:37.271,159.469,20.3051,0,0.000885,0,0
0:1:37.868,160.643,20.4567,0,0.000885,0,0
0:1:38.465,161.639,20.5809,0,0.000885,0,0
0:1:39.062,163.223,20.7808,0,0.000885,0,0
0:1:39.670,163.752,20.8497,0,0.000885,0,0
0:1:40.275,165.572,21.0842,0,0.000885,0,0
0:1:40.873,166.51,21.2014,0,0.000885,0,0
0:1:41.471,167.8,21.3669,0,0.000885,0,0
0:1:42.068,168.97,21.5116,0,0.000885,0,0
0:1:42.663,169.615,21.5944,0,0.000885,0,0
0:1:43.259,171.025,21.7736,0,0.000885,0,0
0:1:43.862,172.609,21.9805,0,0.000885,0,0
0:1:44.468,173.721,22.1184,0,0.000885,0,0
0:1:45.075,174.486,22.2149,0,0.000885,0,0
0:1:45.680,175.776,22.3804,0,0.000885,0,0
0:1:46.278,177.244,22.5665,0,0.000885,0,0
0:1:46.873,178.12,22.6769,0,0.000885,0,0
0:1:47.467,179.704,22.8837,0,0.000885,0,0
0:1:48.063,181.172,23.0699,0,0.000885,0,0
0:1:48.661,182.168,23.194,0,0.000885,0,0
0:1:49.268,183.4,23.3525,0,0.000885,0,0
0:1:49.873,184.161,23.4491,0,0.000885,0,0
0:1:50.472,185.099,23.5663,0,0.000885,0,0
0:1:51.068,186.274,23.718,0,0.000885,0,0
0:1:51.663,188.035,23.9386,0,0.000885,0,0
0:1:52.261,188.912,24.0558,0,0.000885,0,0
0:1:52.857,189.912,24.1799,0,0.000885,0,0
0:1:53.463,190.846,24.2971,0,0.000885,0,0
0:1:54.059,192.608,24.5247,0,0.000885,0,0
0:1:54.663,193.782,24.6763,0,0.000885,0,0
0:1:55.263,195.366,24.8763,0,0.000885,0,0
0:1:55.855,195.891,24.9452,0,0.000885,0,0
0:1:56.460,197.123,25.0969,0,0.000885,0,0
0:1:57.061,198.297,25.2486,0,0.000885,0,0
0:1:57.649,199.472,25.4003,0,0.000885,0,0
0:1:58.241,201.171,25.614,0,0.000885,0,0
0:1:58.841,201.171,25.614,0,0.000885,0,0
0:1:59.442,202.697,25.8071,0,0.000885,0,0
0:2:0.044,204.516,26.0415,0,0.000885,0,0
0:2:0.645,205.334,26.1449,0,0.000885,0,0
0:2:1.257,206.331,26.269,0,0.000885,0,0
0:2:1.858,207.505,26.4207,0,0.000885,0,0
0:2:2.460,208.679,26.5724,0,0.000885,0,0
0:2:3.052,210.027,26.7448,0,0.000885,0,0
0:2:3.660,211.611,26.9447,0,0.000885,0,0
0:2:4.263,212.959,27.1171,0,0.000885,0,0
0:2:4.867,213.604,27.1998,0,0.000885,0,0
0:2:5.469,214.311,27.2894,0,0.000885,0,0
0:2:6.062,215.659,27.4618,0,0.000885,0,0
0:2:6.653,217.358,27.6756,0,0.000885,0,0
0:2:7.259,217.594,27.7031,0,0.000885,0,0
0:2:7.861,219.235,27.9169,0,0.000885,0,0
0:2:8.460,220.289,28.0479,0,0.000885,0,0
0:2:9.050,221.757,28.234,0,0.000885,0,0
0:2:9.658,222.696,28.3512,0,0.000885,0,0
0:2:10.260,223.341,28.434,0,0.000885,0,0
0:2:10.862,225.627,28.7305,0,0.000885,0,0
0:2:11.462,226.744,28.8683,0,0.000885,0,0
0:2:12.052,227.976,29.0269,0,0.000885,0,0
0:2:12.667,228.736,29.1235,0,0.000885,0,0
0:2:13.259,230.262,29.3165,0,0.000885,0,0
0:2:13.862,231.143,29.4268,0,0.000885,0,0
0:2:14.465,231.788,29.5096,0,0.000885,0,0
0:2:15.065,233.314,29.7095,0,0.000885,0,0
0:2:15.661,234.426,29.8474,0,0.000885,0,0
0:2:16.263,236.009,30.0474,0,0.000885,0,0
0:2:16.868,236.712,30.137,0,0.000885,0,0
0:2:17.460,237.709,30.268,0,0.000885,0,0
0:2:18.063,239.234,30.461,0,0.000885,0,0
0:2:18.665,240.587,30.6334,0,0.000885,0,0
0:2:19.265,241.289,30.723,0,0.000885,0,0
0:2:19.869,242.401,30.8609,0,0.000885,0,0
0:2:20.471,243.398,30.9919,0,0.000885,0,0
0:2:21.065,244.688,31.1574,0,0.000885,0,0
0:2:21.655,246.271,31.3574,0,0.000885,0,0
0:2:22.265,247.272,31.4815,0,0.000885,0,0
0:2:22.859,248.091,31.5849,0,0.000885,0,0
0:2:23.463,249.559,31.7779,0,0.000885,0,0
0:2:24.055,250.261,31.8676,0,0.000885,0,0
0:2:24.664,251.378,32.0055,0,0.000885,0,0
0:2:25.264,252.726,32.1778,0,0.000885,0,0
0:2:25.868,253.958,32.3364,0,0.000885,0,0
0:2:26.460,254.425,32.3916,0,0.000885,0,0
0:2:27.064,255.835,32.5708,0,0.000885,0,0
0:2:27.666,256.538,32.6605,0,0.000885,0,0
0:2:28.267,257.65,32.8053,0,0.000885,0,0
0:2:28.866,259.118,32.9914,0,0.000885,0,0
0:2:29.469,259.354,33.019,0,0.000885,0,0
0:2:30.071,259.821,33.081,0,0.000885,0,0
0:2:30.672,260.879,33.2189,0,0.000885,0,0
0:2:31.263,260.114,33.1155,0,0.000885,0,0
0:2:31.872,258.357,32.8949,0,0.000885,0,0
0:2:32.462,246.685,31.4056,0,0.000885,0,0
0:2:33.064,214.017,27.2481,0,0.000885,0,0
0:2:33.668,189.97,24.1868,0,0.000885,0,0
0:2:33.808,185.513,23.6214,0,0.000885,0,0

File: DataFile2021-06-29_053151.csv
Test ID:,Date Tested:,Time:,Test Type:,Diameter Avg. (mm):,Cyl. Corr. Factor:,Height (mm):,Age (days):,Weight (kN):,Break Type:,Ramp Rate (MPa/s):,Load at Break (kN):,Stress at Break (MPa):
12,6/29/2021,05:31,Cylinder,100,1,200,0,3.6,3,0.24,318.76,40.59
Sample Time,Load (kN),Stress (MPa),Long. Strain,Trans. Strain,Chan1 Deflection (mm),Chan2 Deflection (mm)
0:0:19.534,5.33787,0.682581,0,0.000885,0,0
0:0:20.234,13.2557,1.68922,0,0.000885,0,0
0:0:20.938,11.9079,1.51685,0,0.000885,0,0
0:0:21.625,11.4364,1.45479,0,0.000885,0,0
0:0:22.323,11.4942,1.46169,0,0.000885,0,0
0:0:23.038,11.2629,1.43411,0,0.000885,0,0
0:0:23.728,12.3171,1.56511,0,0.000885,0,0
0:0:24.440,14.0742,1.79264,0,0.000885,0,0
0:0:25.136,15.3063,1.95122,0,0.000885,0,0
0:0:25.844,17.3614,2.21322,0,0.000885,0,0
0:0:26.553,19.3542,2.46143,0,0.000885,0,0
0:0:27.247,20.9956,2.67517,0,0.000885,0,0
0:0:27.944,21.9342,2.79238,0,0.000885,0,0
0:0:28.642,23.1085,2.94406,0,0.000885,0,0
0:0:29.337,24.9857,3.17848,0,0.000885,0,0
0:0:30.036,25.4527,3.24054,0,0.000885,0,0
0:0:30.744,27.2142,3.46806,0,0.000885,0,0
0:0:31.451,28.6199,3.64733,0,0.000885,0,0
0:0:32.149,30.1456,3.84038,0,0.000885,0,0
0:0:32.844,31.0842,3.95759,0,0.000885,0,0
0:0:33.542,32.7878,4.17133,0,0.000885,0,0
0:0:34.241,34.0778,4.3368,0,0.000885,0,0
0:0:34.940,35.3055,4.49538,0,0.000885,0,0
0:0:35.649,36.8313,4.68843,0,0.000885,0,0
0:0:36.354,38.357,4.88149,0,0.000885,0,0
0:0:37.048,39.7048,5.05386,0,0.000885,0,0
0:0:37.746,41.2884,5.25381,0,0.000885,0,0
0:0:38.443,42.7563,5.44686,0,0.000885,0,0
0:0:39.137,43.9306,5.59165,0,0.000885,0,0
0:0:39.836,45.3363,5.77091,0,0.000885,0,0
0:0:40.545,46.3905,5.90881,0,0.000885,0,0
0:0:41.251,48.3299,6.15012,0,0.000885,0,0
0:0:41.950,49.6777,6.32249,0,0.000885,0,0
0:0:42.643,50.1448,6.38455,0,0.000885,0,0
0:0:43.343,51.9641,6.61897,0,0.000885,0,0
0:0:44.040,53.6633,6.8327,0,0.000885,0,0
0:0:44.743,54.5441,6.94302,0,0.000885,0,0
0:0:45.449,56.1855,7.15676,0,0.000885,0,0
0:0:46.156,57.7691,7.35671,0,0.000885,0,0
0:0:46.854,58.6498,7.46702,0,0.000885,0,0
0:0:47.554,59.9398,7.6325,0,0.000885,0,0
0:0:48.248,61.3499,7.81176,0,0.000885,0,0
0:0:48.944,62.8712,8.00481,0,0.000885,0,0
0:0:49.645,64.2813,8.18408,0,0.000885,0,0
0:0:50.342,66.0383,8.4116,0,0.000885,0,0
0:0:51.050,67.2126,8.55639,0,0.000885,0,0
0:0:51.756,68.209,8.68739,0,0.000885,0,0
0:0:52.450,69.6769,8.87355,0,0.000885,0,0
0:0:53.150,71.4963,9.10108,0,0.000885,0,0
0:0:53.847,72.5505,9.23897,0,0.000885,0,0
0:0:54.539,73.7248,9.38376,0,0.000885,0,0
0:0:55.247,75.3662,9.5975,0,0.000885,0,0
0:0:55.953,76.8341,9.78366,0,0.000885,0,0
0:0:56.654,78.1241,9.94913,0,0.000885,0,0
0:0:57.352,79.3563,10.1008,0,0.000885,0,0
0:0:58.045,80.4683,10.2456,0,0.000885,0,0
0:0:58.744,82.5812,10.5145,0,0.000885,0,0
0:0:59.439,83.9869,10.6938,0,0.000885,0,0
0:1:0.142,84.8676,10.8041,0,0.000885,0,0
0:1:0.848,86.3934,10.9971,0,0.000885,0,0
0:1:1.550,88.2082,11.2316,0,0.000885,0,0
0:1:2.249,89.1468,11.3488,0,0.000885,0,0
0:1:2.945,90.9083,11.5763,0,0.000885,0,0
0:1:3.639,92.1405,11.7349,0,0.000885,0,0
0:1:4.338,92.7855,11.8107,0,0.000885,0,0
0:1:5.047,94.1333,11.9831,0,0.000885,0,0
0:1:5.756,96.4197,12.2796,0,0.000885,0,0
0:1:6.461,97.5362,12.4175,0,0.000885,0,0
0:1:7.153,98.0032,12.4795,0,0.000885,0,0
0:1:7.851,99.529,12.6726,0,0.000885,0,0
0:1:8.548,101.935,12.9759,0,0.000885,0,0
0:1:9.241,103.577,13.1897,0,0.000885,0,0
0:1:9.942,104.4,13.2931,0,0.000885,0,0
0:1:10.651,105.454,13.4241,0,0.000885,0,0
0:1:11.356,107.331,13.6654,0,0.000885,0,0
0:1:12.055,108.212,13.7757,0,0.000885,0,0
0:1:12.748,110.498,14.0722,0,0.000885,0,0
0:1:13.446,110.672,14.0929,0,0.000885,0,0
0:1:14.144,112.611,14.3411,0,0.000885,0,0
0:1:14.833,113.372,14.4376,0,0.000885,0,0
0:1:15.545,114.955,14.6376,0,0.000885,0,0
0:1:16.251,116.539,14.8375,0,0.000885,0,0
0:1:16.951,117.184,14.9203,0,0.000885,0,0
0:1:17.650,119.822,15.2581,0,0.000885,0,0
0:1:18.343,120.76,15.3753,0,0.000885,0,0
0:1:19.041,122.05,15.5408,0,0.000885,0,0
0:1:19.747,123.225,15.6925,0,0.000885,0,0
0:1:20.450,124.63,15.8717,0,0.000885,0,0
0:1:21.157,125.983,16.0372,0,0.000885,0,0
0:1:21.857,127.624,16.2509,0,0.000885,0,0
0:1:22.554,129.092,16.4371,0,0.000885,0,0
0:1:23.253,130.32,16.5957,0,0.000885,0,0
0:1:23.947,131.552,16.7474,0,0.000885,0,0
0:1:24.643,133.135,16.9542,0,0.000885,0,0
0:1:25.355,134.777,17.1611,0,0.000885,0,0
0:1:26.057,135.426,17.2438,0,0.000885,0,0
0:1:26.756,137.361,17.492,0,0.000885,0,0
0:1:27.452,137.944,17.5609,0,0.000885,0,0
0:1:28.148,139.647,17.7816,0,0.000885,0,0
0:1:28.847,141.525,18.016,0,0.000885,0,0
0:1:29.541,143.753,18.3056,0,0.000885,0,0
0:1:30.246,143.46,18.2642,0,0.000885,0,0
0:1:30.952,145.101,18.4779,0,0.000885,0,0
0:1:31.653,146.391,18.6365,0,0.000885,0,0
0:1:32.350,148.384,18.8916,0,0.000885,0,0
0:1:33.048,149.558,19.0433,0,0.000885,0,0
0:1:33.740,150.612,19.1743,0,0.000885,0,0
0:1:34.447,151.965,19.3467,0,0.000885,0,0
0:1:35.144,153.842,19.588,0,0.000885,0,0
0:1:35.853,154.545,19.6776,0,0.000885,0,0
0:1:36.559,156.07,19.8707,0,0.000885,0,0
0:1:37.256,158.005,20.1189,0,0.000885,0,0
0:1:37.948,159.295,20.2844,0,0.000885,0,0
0:1:38.649,160.47,20.4292,0,0.000885,0,0
0:1:39.343,162.347,20.6705,0,0.000885,0,0
0:1:40.047,163.05,20.7601,0,0.000885,0,0
0:1:40.752,165.278,21.0428,0,0.000885,0,0
0:1:41.451,165.865,21.1186,0,0.000885,0,0
0:1:42.149,167.742,21.36,0,0.000885,0,0
0:1:42.848,168.503,21.4565,0,0.000885,0,0
0:1:43.540,169.557,21.5875,0,0.000885,0,0
0:1:44.248,171.261,21.8081,0,0.000885,0,0
0:1:44.947,173.018,22.0287,0,0.000885,0,0
0:1:45.656,174.308,22.1942,0,0.000885,0,0
0:1:46.362,176.363,22.4562,0,0.000885,0,0
0:1:47.057,176.95,22.5321,0,0.000885,0,0
0:1:47.751,178.356,22.7113,0,0.000885,0,0
0:1:48.451,179.766,22.8906,0,0.000885,0,0
0:1:49.144,181.465,23.1043,0,0.000885,0,0
0:1:49.851,183.107,23.3112,0,0.000885,0,0
0:1:50.558,183.93,23.4215,0,0.000885,0,0
0:1:51.262,184.926,23.5456,0,0.000885,0,0
0:1:51.962,186.389,23.7318,0,0.000885,0,0
0:1:52.658,188.209,23.9662,0,0.000885,0,0
0:1:53.351,189.267,24.0972,0,0.000885,0,0
0:1:54.049,191.434,24.373,0,0.000885,0,0
0:1:54.745,192.844,24.5522,0,0.000885,0,0
0:1:55.442,193.08,24.5867,0,0.000885,0,0
0:1:56.144,194.485,24.766,0,0.000885,0,0
0:1:56.841,196.127,24.9728,0,0.000885,0,0
0:1:57.543,197.594,25.159,0,0.000885,0,0
0:1:58.247,199.294,25.3727,0,0.000885,0,0
0:1:58.944,201.522,25.6554,0,0.000885,0,0
0:1:59.635,202.639,25.8002,0,0.000885,0,0
0:2:0.338,203.399,25.8967,0,0.000885,0,0
0:2:1.038,204.516,26.0415,0,0.000885,0,0
0:2:1.745,205.334,26.1449,0,0.000885,0,0
0:2:2.445,207.389,26.4069,0,0.000885,0,0
0:2:3.133,209.146,26.6276,0,0.000885,0,0
0:2:3.835,210.436,26.793,0,0.000885,0,0
0:2:4.535,211.202,26.8896,0,0.000885,0,0
0:2:5.235,212.665,27.0757,0,0.000885,0,0
0:2:5.939,215.014,27.3791,0,0.000885,0,0
0:2:6.645,215.129,27.3929,0,0.000885,0,0
0:2:7.334,216.184,27.5239,0,0.000885,0,0
0:2:8.027,218.59,27.8341,0,0.000885,0,0
0:2:8.746,219.764,27.9789,0,0.000885,0,0
0:2:9.437,221.348,28.1858,0,0.000885,0,0
0:2:10.130,222.989,28.3926,0,0.000885,0,0
0:2:10.834,223.634,28.4753,0,0.000885,0,0
0:2:11.537,225.334,28.6891,0,0.000885,0,0
0:2:12.237,226.801,28.8752,0,0.000885,0,0
0:2:12.947,228.149,29.0476,0,0.000885,0,0
0:2:13.643,229.853,29.2682,0,0.000885,0,0
0:2:14.330,230.907,29.3992,0,0.000885,0,0
0:2:15.031,232.082,29.5509,0,0.000885,0,0
0:2:15.732,233.429,29.7233,0,0.000885,0,0
0:2:16.435,234.31,29.8336,0,0.000885,0,0
0:2:17.137,235.658,30.006,0,0.000885,0,0
0:2:17.833,237.419,30.2266,0,0.000885,0,0
0:2:18.540,238.941,30.4197,0,0.000885,0,0
0:2:19.235,239.999,30.5576,0,0.000885,0,0
0:2:19.928,242.286,30.8471,0,0.000885,0,0
0:2:20.632,243.046,30.9437,0,0.000885,0,0
0:2:21.333,243.927,31.0609,0,0.000885,0,0
0:2:22.025,245.746,31.2884,0,0.000885,0,0
0:2:22.734,247.272,31.4815,0,0.000885,0,0
0:2:23.429,248.033,31.578,0,0.000885,0,0
0:2:24.136,249.968,31.8262,0,0.000885,0,0
0:2:24.835,250.733,31.9227,0,0.000885,0,0
0:2:25.541,252.668,32.1709,0,0.000885,0,0
0:2:26.240,254.603,32.4191,0,0.000885,0,0
0:2:26.947,255.306,32.5088,0,0.000885,0,0
0:2:27.636,256.302,32.6329,0,0.000885,0,0
0:2:28.333,258.237,32.8811,0,0.000885,0,0
0:2:29.035,259.176,32.9983,0,0.000885,0,0
0:2:29.728,261.053,33.2396,0,0.000885,0,0
0:2:30.425,262.463,33.4189,0,0.000885,0,0
0:2:31.129,263.691,33.5775,0,0.000885,0,0
0:2:31.825,265.394,33.7912,0,0.000885,0,0
0:2:32.535,265.803,33.8464,0,0.000885,0,0
0:2:33.238,267.445,34.0532,0,0.000885,0,0
0:2:33.938,269.442,34.3083,0,0.000885,0,0
0:2:34.628,270.439,34.4324,0,0.000885,0,0
0:2:35.334,271.729,34.5979,0,0.000885,0,0
0:2:36.034,273.37,34.8047,0,0.000885,0,0
0:2:36.736,274.073,34.8944,0,0.000885,0,0
0:2:37.437,275.95,35.1357,0,0.000885,0,0
0:2:38.135,277.476,35.3287,0,0.000885,0,0
0:2:38.838,279.001,35.5218,0,0.000885,0,0
0:2:39.538,280.056,35.6597,0,0.000885,0,0
0:2:40.249,281.288,35.8114,0,0.000885,0,0
0:2:40.952,282.987,36.032,0,0.000885,0,0
0:2:41.646,284.397,36.2113,0,0.000885,0,0
0:2:42.350,285.923,36.4043,0,0.000885,0,0
0:2:43.040,286.919,36.5284,0,0.000885,0,0
0:2:43.749,288.325,36.7077,0,0.000885,0,0
0:2:44.442,289.384,36.8456,0,0.000885,0,0
0:2:45.146,291.492,37.1145,0,0.000885,0,0
0:2:45.850,292.84,37.2868,0,0.000885,0,0
0:2:46.551,293.956,37.4247,0,0.000885,0,0
0:2:47.239,295.54,37.6316,0,0.000885,0,0
0:2:47.949,296.714,37.7764,0,0.000885,0,0
0:2:48.655,297.711,37.9074,0,0.000885,0,0
0:2:49.340,298.823,38.0453,0,0.000885,0,0
0:2:50.040,300.348,38.2383,0,0.000885,0,0
0:2:50.741,302.283,38.4865,0,0.000885,0,0
0:2:51.447,303.342,38.6244,0,0.000885,0,0
0:2:52.150,304.926,38.8244,0,0.000885,0,0
0:2:52.841,306.158,38.983,0,0.000885,0,0
0:2:53.538,307.448,39.1484,0,0.000885,0,0
0:2:54.233,308.911,39.3346,0,0.000885,0,0
0:2:54.937,309.734,39.438,0,0.000885,0,0
0:2:55.641,310.966,39.5966,0,0.000885,0,0
0:2:56.343,312.43,39.7827,0,0.000885,0,0
0:2:57.043,313.898,39.9689,0,0.000885,0,0
0:2:57.743,315.13,40.1206,0,0.000885,0,0
0:2:58.438,316.478,40.293,0,0.000885,0,0
0:2:59.127,317.768,40.4584,0,0.000885,0,0
0:2:59.818,318.119,40.5067,0,0.000885,0,0
0:3:0.522,319.115,40.6308,0,0.000885,0,0
0:3:1.222,318.177,40.5136,0,0.000885,0,0
0:3:1.914,316.126,40.2516,0,0.000885,0,0
0:3:2.606,301.171,38.3486,0,0.000885,0,0
0:3:3.293,236.77,30.1439,0,0.000885,0,0
0:3:3.404,236.77,30.1439,0,0.000885,0,0