Folder: Experiment-Files (part 8)

File: DataFile2021-06-06_073306.csv
Test ID:,Date Tested:,Time:,Test Type:,Diameter Avg. (mm):,Cyl. Corr. Factor:,Height (mm):,Age (days):,Weight (kN):,Break Type:,Ramp Rate (MPa/s):,Load at Break (kN):,Stress at Break (MPa):
12,6/6/2021,07:33,Cylinder,100,1,200,0,13.39,3,0.24,336.71,42.87
Sample Time,Load (kN),Stress (MPa),Long. Strain,Trans. Strain,Chan1 Deflection (mm),Chan2 Deflection (mm)
0:0:7.192,5.10211,0.648107,0,0.000885,0,0
0:0:7.985,9.20782,1.17211,0,0.000885,0,0
0:0:8.781,8.79858,1.11695,0,0.000885,0,0
0:0:9.571,8.74076,1.11006,0,0.000885,0,0
0:0:10.368,10.3243,1.3169,0,0.000885,0,0
0:0:11.160,12.1392,1.54443,0,0.000885,0,0
0:0:11.959,14.3678,1.82711,0,0.000885,0,0
0:0:12.759,16.0714,2.04774,0,0.000885,0,0
0:0:13.570,18.1221,2.30974,0,0.000885,0,0
0:0:14.370,19.9414,2.53727,0,0.000885,0,0
0:0:15.166,21.1157,2.68896,0,0.000885,0,0
0:0:15.962,22.3479,2.84753,0,0.000885,0,0
0:0:16.755,24.1627,3.07506,0,0.000885,0,0
0:0:17.555,25.8041,3.2888,0,0.000885,0,0
0:0:18.367,27.3877,3.48875,0,0.000885,0,0
0:0:19.173,28.7978,3.66801,0,0.000885,0,0
0:0:19.963,30.6171,3.89554,0,0.000885,0,0
0:0:20.762,31.3199,3.98517,0,0.000885,0,0
0:0:21.559,33.1971,4.22649,0,0.000885,0,0
0:0:22.354,34.9541,4.45401,0,0.000885,0,0
0:0:23.161,36.7156,4.67465,0,0.000885,0,0
0:0:23.970,38.2992,4.87459,0,0.000885,0,0
0:0:24.770,39.4112,5.01938,0,0.000885,0,0
0:0:25.563,40.9948,5.21933,0,0.000885,0,0
0:0:26.362,42.5784,5.41928,0,0.000885,0,0
0:0:27.157,44.9849,5.72954,0,0.000885,0,0
0:0:27.968,46.7464,5.95018,0,0.000885,0,0
0:0:28.774,47.3914,6.03291,0,0.000885,0,0
0:0:29.572,49.3842,6.28802,0,0.000885,0,0
0:0:30.368,50.4962,6.43281,0,0.000885,0,0
0:0:31.162,52.1999,6.64655,0,0.000885,0,0
0:0:31.960,53.9569,6.86718,0,0.000885,0,0
0:0:32.763,54.9533,6.99818,0,0.000885,0,0
0:0:33.572,56.7148,7.21881,0,0.000885,0,0
0:0:34.374,58.7699,7.48081,0,0.000885,0,0
0:0:35.173,60.2334,7.66697,0,0.000885,0,0
0:0:35.967,61.5234,7.83244,0,0.000885,0,0
0:0:36.764,62.7555,7.99102,0,0.000885,0,0
0:0:37.562,65.2777,8.30818,0,0.000885,0,0
0:0:38.373,66.452,8.45987,0,0.000885,0,0
0:0:39.180,67.9777,8.65292,0,0.000885,0,0
0:0:39.973,69.6191,8.86666,0,0.000885,0,0
0:0:40.773,70.9669,9.03903,0,0.000885,0,0
0:0:41.565,72.3726,9.21829,0,0.000885,0,0
0:0:42.363,74.1919,9.44582,0,0.000885,0,0
0:0:43.169,75.9534,9.67334,0,0.000885,0,0
0:0:43.977,77.6526,9.88708,0,0.000885,0,0
0:0:44.775,79.0627,10.0663,0,0.000885,0,0
0:0:45.568,79.939,10.1767,0,0.000885,0,0
0:0:46.368,82.5812,10.5145,0,0.000885,0,0
0:0:47.160,83.8712,10.68,0,0.000885,0,0
0:0:47.971,85.2769,10.8592,0,0.000885,0,0
0:0:48.778,86.9183,11.0661,0,0.000885,0,0
0:0:49.573,88.1504,11.2247,0,0.000885,0,0
0:0:50.373,89.8541,11.4384,0,0.000885,0,0
0:0:51.164,91.9625,11.7073,0,0.000885,0,0
0:0:51.962,92.6075,11.79,0,0.000885,0,0
0:0:52.766,94.3112,12.0107,0,0.000885,0,0
0:0:53.574,96.304,12.2589,0,0.000885,0,0
0:0:54.374,97.5362,12.4175,0,0.000885,0,0
0:0:55.168,99.0619,12.6105,0,0.000885,0,0
0:0:55.967,101.584,12.9346,0,0.000885,0,0
0:0:56.760,102.523,13.0518,0,0.000885,0,0
0:0:57.560,103.813,13.2172,0,0.000885,0,0
0:0:58.371,105.512,13.431,0,0.000885,0,0
0:0:59.176,106.922,13.6103,0,0.000885,0,0
0:0:59.974,109.088,13.8929,0,0.000885,0,0
0:1:0.766,109.795,13.9826,0,0.000885,0,0
0:1:1.565,112.491,14.3204,0,0.000885,0,0
0:1:2.356,113.256,14.4169,0,0.000885,0,0
0:1:3.167,115.129,14.6583,0,0.000885,0,0
0:1:3.973,116.712,14.8582,0,0.000885,0,0
0:1:4.770,118.652,15.1064,0,0.000885,0,0
0:1:5.567,119.88,15.265,0,0.000885,0,0
0:1:6.359,121.819,15.5132,0,0.000885,0,0
0:1:7.158,122.873,15.6442,0,0.000885,0,0
0:1:7.961,124.399,15.8373,0,0.000885,0,0
0:1:8.770,126.214,16.0717,0,0.000885,0,0
0:1:9.571,127.388,16.2165,0,0.000885,0,0
0:1:10.368,129.15,16.444,0,0.000885,0,0
0:1:11.162,130.555,16.6233,0,0.000885,0,0
0:1:11.954,133.193,16.9611,0,0.000885,0,0
0:1:12.755,134.016,17.0645,0,0.000885,0,0
0:1:13.564,135.426,17.2438,0,0.000885,0,0
0:1:14.369,136.832,17.4231,0,0.000885,0,0
0:1:15.164,138.882,17.6851,0,0.000885,0,0
0:1:15.959,140.177,17.8505,0,0.000885,0,0
0:1:16.757,141.525,18.016,0,0.000885,0,0
0:1:17.557,142.988,18.2091,0,0.000885,0,0
0:1:18.368,144.928,18.4504,0,0.000885,0,0
0:1:19.169,146.8,18.6917,0,0.000885,0,0
0:1:19.969,148.446,18.8985,0,0.000885,0,0
0:1:20.760,149.736,19.064,0,0.000885,0,0
0:1:21.557,151.435,19.2846,0,0.000885,0,0
0:1:22.352,152.667,19.4363,0,0.000885,0,0
0:1:23.161,154.66,19.6914,0,0.000885,0,0
0:1:23.968,156.244,19.8914,0,0.000885,0,0
0:1:24.760,157.067,20.0017,0,0.000885,0,0
0:1:25.560,158.944,20.2361,0,0.000885,0,0
0:1:26.351,160.176,20.3947,0,0.000885,0,0
0:1:27.150,162.992,20.7532,0,0.000885,0,0
0:1:27.952,163.459,20.8153,0,0.000885,0,0
0:1:28.761,165.158,21.029,0,0.000885,0,0
0:1:29.563,167.329,21.3048,0,0.000885,0,0
0:1:30.359,168.681,21.4772,0,0.000885,0,0
0:1:31.154,169.793,21.622,0,0.000885,0,0
0:1:31.949,171.786,21.8702,0,0.000885,0,0
0:1:32.749,173.427,22.0839,0,0.000885,0,0
0:1:33.558,174.953,22.277,0,0.000885,0,0
0:1:34.365,176.479,22.47,0,0.000885,0,0
0:1:35.157,177.653,22.6217,0,0.000885,0,0
0:1:35.956,179.059,22.801,0,0.000885,0,0
0:1:36.750,181.056,23.0492,0,0.000885,0,0
0:1:37.558,182.577,23.2491,0,0.000885,0,0
0:1:38.371,184.575,23.4973,0,0.000885,0,0
0:1:39.174,185.864,23.6628,0,0.000885,0,0
0:1:39.970,187.212,23.8352,0,0.000885,0,0
0:1:40.762,188.912,24.0558,0,0.000885,0,0
0:1:41.561,190.264,24.2282,0,0.000885,0,0
0:1:42.353,191.963,24.4419,0,0.000885,0,0
0:1:43.161,193.724,24.6625,0,0.000885,0,0
0:1:43.960,194.837,24.8073,0,0.000885,0,0
0:1:44.751,196.184,24.9797,0,0.000885,0,0
0:1:45.551,198.119,25.2279,0,0.000885,0,0
0:1:46.350,200.117,25.4761,0,0.000885,0,0
0:1:47.151,201.931,25.7105,0,0.000885,0,0
0:1:47.956,203.399,25.8967,0,0.000885,0,0
0:1:48.760,204.925,26.0898,0,0.000885,0,0
0:1:49.553,206.099,26.2414,0,0.000885,0,0
0:1:50.356,207.563,26.4276,0,0.000885,0,0
0:1:51.154,209.382,26.662,0,0.000885,0,0
0:1:51.943,211.495,26.9309,0,0.000885,0,0
0:1:52.743,212.14,27.0137,0,0.000885,0,0
0:1:53.544,214.017,27.2481,0,0.000885,0,0
0:1:54.350,215.539,27.4411,0,0.000885,0,0
0:1:55.145,216.949,27.6204,0,0.000885,0,0
0:1:55.949,218.532,27.8272,0,0.000885,0,0
0:1:56.756,220.231,28.041,0,0.000885,0,0
0:1:57.549,221.521,28.2065,0,0.000885,0,0
0:1:58.354,223.399,28.4409,0,0.000885,0,0
0:1:59.150,225.276,28.6822,0,0.000885,0,0
0:1:59.953,226.099,28.7856,0,0.000885,0,0
0:2:0.748,227.74,28.9993,0,0.000885,0,0
0:2:1.550,229.03,29.1579,0,0.000885,0,0
0:2:2.351,231.494,29.4751,0,0.000885,0,0
0:2:3.156,233.314,29.7095,0,0.000885,0,0
0:2:3.956,234.368,29.8405,0,0.000885,0,0
0:2:4.752,235.894,30.0336,0,0.000885,0,0
0:2:5.556,237.477,30.2335,0,0.000885,0,0
0:2:6.354,238.767,30.399,0,0.000885,0,0
0:2:7.153,240.115,30.5714,0,0.000885,0,0
0:2:7.953,242.637,30.8954,0,0.000885,0,0
0:2:8.753,243.869,31.0471,0,0.000885,0,0
0:2:9.557,245.862,31.3022,0,0.000885,0,0
0:2:10.353,246.979,31.447,0,0.000885,0,0
0:2:11.157,248.5,31.64,0,0.000885,0,0
0:2:11.954,250.261,31.8676,0,0.000885,0,0
0:2:12.757,251.316,31.9986,0,0.000885,0,0
0:2:13.564,252.841,32.1916,0,0.000885,0,0
0:2:14.358,255.128,32.4812,0,0.000885,0,0
0:2:15.153,256.538,32.6605,0,0.000885,0,0
0:2:15.947,258.709,32.9363,0,0.000885,0,0
0:2:16.751,259.233,33.0052,0,0.000885,0,0
0:2:17.558,260.523,33.1707,0,0.000885,0,0
0:2:18.364,262.988,33.4878,0,0.000885,0,0
0:2:19.165,263.869,33.5982,0,0.000885,0,0
0:2:19.951,265.981,33.867,0,0.000885,0,0
0:2:20.754,267.565,34.067,0,0.000885,0,0
0:2:21.552,269.38,34.3014,0,0.000885,0,0
0:2:22.353,270.145,34.3979,0,0.000885,0,0
0:2:23.158,271.671,34.591,0,0.000885,0,0
0:2:23.958,273.606,34.8392,0,0.000885,0,0
0:2:24.756,275.131,35.0323,0,0.000885,0,0
0:2:25.555,276.831,35.246,0,0.000885,0,0
0:2:26.357,278.588,35.4735,0,0.000885,0,0
0:2:27.154,279.998,35.6528,0,0.000885,0,0
0:2:27.957,281.581,35.8527,0,0.000885,0,0
0:2:28.760,283.107,36.0458,0,0.000885,0,0
0:2:29.554,284.984,36.2871,0,0.000885,0,0
0:2:30.348,286.448,36.4733,0,0.000885,0,0
0:2:31.152,288.151,36.687,0,0.000885,0,0
0:2:31.958,288.796,36.7697,0,0.000885,0,0
0:2:32.754,291.198,37.08,0,0.000885,0,0
0:2:33.559,292.84,37.2868,0,0.000885,0,0
0:2:34.353,294.014,37.4385,0,0.000885,0,0
0:2:35.155,295.598,37.6385,0,0.000885,0,0
0:2:35.959,297.301,37.8522,0,0.000885,0,0
0:2:36.754,298.765,38.0384,0,0.000885,0,0
0:2:37.548,300.526,38.2659,0,0.000885,0,0
0:2:38.355,302.871,38.5624,0,0.000885,0,0
0:2:39.155,303.809,38.6796,0,0.000885,0,0
0:2:39.957,304.574,38.7761,0,0.000885,0,0
0:2:40.755,306.389,39.0105,0,0.000885,0,0
0:2:41.554,307.799,39.1898,0,0.000885,0,0
0:2:42.343,309.908,39.4587,0,0.000885,0,0
0:2:43.147,311.14,39.6173,0,0.000885,0,0
0:2:43.947,312.781,39.8241,0,0.000885,0,0
0:2:44.755,314.249,40.0103,0,0.000885,0,0
0:2:45.558,315.775,40.2033,0,0.000885,0,0
0:2:46.355,317.301,40.3964,0,0.000885,0,0
0:2:47.156,319.409,40.6653,0,0.000885,0,0
0:2:47.957,321.055,40.879,0,0.000885,0,0
0:2:48.757,322.345,41.0445,0,0.000885,0,0
0:2:49.560,323.515,41.1893,0,0.000885,0,0
0:2:50.358,324.689,41.341,0,0.000885,0,0
0:2:51.160,326.037,41.5133,0,0.000885,0,0
0:2:51.955,327.741,41.7271,0,0.000885,0,0
0:2:52.760,329.969,42.0098,0,0.000885,0,0
0:2:53.566,331.846,42.2511,0,0.000885,0,0
0:2:54.365,333.31,42.4372,0,0.000885,0,0
0:2:55.155,334.013,42.5269,0,0.000885,0,0
0:2:55.955,335.245,42.6854,0,0.000885,0,0
0:2:56.757,337.122,42.9268,0,0.000885,0,0
0:2:57.558,334.835,42.6303,0,0.000885,0,0
0:2:58.360,331.081,42.1545,0,0.000885,0,0
0:2:59.162,322.345,41.0445,0,0.000885,0,0
0:2:59.951,295.073,37.5695,0,0.000885,0,0
0:3:0.758,264.104,33.6257,0,0.000885,0,0
0:3:1.200,244.572,31.1367,0,0.000885,0,0

File: DataFile2021-06-06_074142.csv
Test ID:,Date Tested:,Time:,Test Type:,Diameter Avg. (mm):,Cyl. Corr. Factor:,Height (mm):,Age (days):,Weight (kN):,Break Type:,Ramp Rate (MPa/s):,Load at Break (kN):,Stress at Break (MPa):
12,6/6/2021,07:41,Cylinder,100,1,200,0,13.39,3,0.23,363.81,46.32
Sample Time,Load (kN),Stress (MPa),Long. Strain,Trans. Strain,Chan1 Deflection (mm),Chan2 Deflection (mm)
0:0:18.135,9.91064,1.26174,0,0.000885,0,0
0:0:18.929,17.3614,2.21322,0,0.000885,0,0
0:0:19.722,16.6586,2.12359,0,0.000885,0,0
0:0:20.517,16.1293,2.05464,0,0.000885,0,0
0:0:21.306,15.8357,2.01327,0,0.000885,0,0
0:0:22.103,15.8935,2.02706,0,0.000885,0,0
0:0:22.894,15.5421,1.9788,0,0.000885,0,0
0:0:23.700,15.72,1.99948,0,0.000885,0,0
0:0:24.507,17.3036,2.20632,0,0.000885,0,0
0:0:25.310,18.5357,2.35801,0,0.000885,0,0
0:0:26.106,20.6442,2.6269,0,0.000885,0,0
0:0:26.903,22.5213,2.86822,0,0.000885,0,0
0:0:27.700,24.4563,3.11643,0,0.000885,0,0
0:0:28.503,25.9821,3.30948,0,0.000885,0,0
0:0:29.309,27.1564,3.45427,0,0.000885,0,0
0:0:30.111,28.6199,3.64733,0,0.000885,0,0
0:0:30.906,29.7364,3.78522,0,0.000885,0,0
0:0:31.704,32.1384,4.09549,0,0.000885,0,0
0:0:32.497,33.722,4.29543,0,0.000885,0,0
0:0:33.298,34.9541,4.45401,0,0.000885,0,0
0:0:34.107,36.5377,4.65396,0,0.000885,0,0
0:0:34.912,38.357,4.88149,0,0.000885,0,0
0:0:35.708,39.9984,5.09523,0,0.000885,0,0
0:0:36.502,40.8792,5.20554,0,0.000885,0,0
0:0:37.300,42.872,5.46065,0,0.000885,0,0
0:0:38.095,44.5178,5.66749,0,0.000885,0,0
0:0:38.903,46.0391,5.86054,0,0.000885,0,0
0:0:39.710,47.6227,6.06049,0,0.000885,0,0
0:0:40.508,49.0906,6.25354,0,0.000885,0,0
0:0:41.303,50.8521,6.47418,0,0.000885,0,0
0:0:42.099,52.1999,6.64655,0,0.000885,0,0
0:0:42.898,53.7256,6.8396,0,0.000885,0,0
0:0:43.698,55.4248,7.06023,0,0.000885,0,0
0:0:44.507,56.8305,7.2395,0,0.000885,0,0
0:0:45.308,58.592,7.46013,0,0.000885,0,0
0:0:46.106,60.2334,7.66697,0,0.000885,0,0
0:0:46.903,61.9949,7.8945,0,0.000885,0,0
0:0:47.696,63.4583,8.08066,0,0.000885,0,0
0:0:48.495,64.3391,8.19097,0,0.000885,0,0
0:0:49.304,65.9226,8.39092,0,0.000885,0,0
0:0:50.112,68.1512,8.6805,0,0.000885,0,0
0:0:50.904,69.4412,8.83908,0,0.000885,0,0
0:0:51.703,70.789,9.01145,0,0.000885,0,0
0:0:52.498,72.6083,9.24587,0,0.000885,0,0
0:0:53.296,74.5433,9.49408,0,0.000885,0,0
0:0:54.110,74.957,9.54234,0,0.000885,0,0
0:0:54.914,76.8341,9.78366,0,0.000885,0,0
0:0:55.714,79.0004,10.0595,0,0.000885,0,0
0:0:56.506,80.6463,10.2663,0,0.000885,0,0
0:0:57.307,82.5234,10.5076,0,0.000885,0,0
0:0:58.099,84.107,10.7076,0,0.000885,0,0
0:0:58.908,84.8676,10.8041,0,0.000885,0,0
0:0:59.714,86.5668,11.0247,0,0.000885,0,0
0:1:0.511,88.3862,11.2522,0,0.000885,0,0
0:1:1.309,89.5605,11.4039,0,0.000885,0,0
0:1:2.103,91.3754,11.6315,0,0.000885,0,0
0:1:2.900,93.1369,11.859,0,0.000885,0,0
0:1:3.708,94.5425,12.0382,0,0.000885,0,0
0:1:4.516,96.2462,12.252,0,0.000885,0,0
0:1:5.316,97.1847,12.3761,0,0.000885,0,0
0:1:6.115,99.6491,12.6864,0,0.000885,0,0
0:1:6.907,100.877,12.8449,0,0.000885,0,0
0:1:7.703,101.878,12.969,0,0.000885,0,0
0:1:8.499,103.577,13.1897,0,0.000885,0,0
0:1:9.308,105.748,13.4655,0,0.000885,0,0
0:1:10.115,107.567,13.693,0,0.000885,0,0
0:1:10.908,108.563,13.824,0,0.000885,0,0
0:1:11.707,110.147,14.0239,0,0.000885,0,0
0:1:12.499,112.607,14.3411,0,0.000885,0,0
0:1:13.298,114.19,14.541,0,0.000885,0,0
0:1:14.108,115.422,14.6996,0,0.000885,0,0
0:1:14.913,116.89,14.8858,0,0.000885,0,0
0:1:15.707,118.59,15.0995,0,0.000885,0,0
0:1:16.499,119.528,15.2167,0,0.000885,0,0
0:1:17.297,121.405,15.458,0,0.000885,0,0
0:1:18.099,123.225,15.6925,0,0.000885,0,0
0:1:18.908,124.105,15.8028,0,0.000885,0,0
0:1:19.713,126.04,16.051,0,0.000885,0,0
0:1:20.513,127.508,16.2372,0,0.000885,0,0
0:1:21.307,129.15,16.444,0,0.000885,0,0
0:1:22.102,130.613,16.6302,0,0.000885,0,0
0:1:22.894,132.432,16.8646,0,0.000885,0,0
0:1:23.697,133.958,17.0576,0,0.000885,0,0
0:1:24.507,135.893,17.3058,0,0.000885,0,0
0:1:25.306,137.886,17.5541,0,0.000885,0,0
0:1:26.105,137.944,17.5609,0,0.000885,0,0
0:1:26.893,140.177,17.8505,0,0.000885,0,0
0:1:27.704,141.818,18.0574,0,0.000885,0,0
0:1:28.499,143.166,18.2297,0,0.000885,0,0
0:1:29.309,144.278,18.3676,0,0.000885,0,0
0:1:30.114,146.627,18.671,0,0.000885,0,0
0:1:30.906,147.739,18.8089,0,0.000885,0,0
0:1:31.706,149.616,19.0502,0,0.000885,0,0
0:1:32.498,151.142,19.2433,0,0.000885,0,0
0:1:33.304,152.316,19.395,0,0.000885,0,0
0:1:34.108,154.073,19.6156,0,0.000885,0,0
0:1:34.916,156.364,19.9121,0,0.000885,0,0
0:1:35.717,158.005,20.1189,0,0.000885,0,0
0:1:36.508,159.06,20.2499,0,0.000885,0,0
0:1:37.308,160.763,20.4705,0,0.000885,0,0
0:1:38.103,161.991,20.6222,0,0.000885,0,0
0:1:38.913,163.343,20.7946,0,0.000885,0,0
0:1:39.719,165.1,21.0221,0,0.000885,0,0
0:1:40.512,167.097,21.2772,0,0.000885,0,0
0:1:41.310,168.445,21.4496,0,0.000885,0,0
0:1:42.103,169.793,21.622,0,0.000885,0,0
0:1:42.900,171.492,21.8357,0,0.000885,0,0
0:1:43.705,173.432,22.0839,0,0.000885,0,0
0:1:44.511,175.131,22.2976,0,0.000885,0,0
0:1:45.310,177.182,22.5596,0,0.000885,0,0
0:1:46.103,177.889,22.6493,0,0.000885,0,0
0:1:46.902,179.117,22.8079,0,0.000885,0,0
0:1:47.692,180.642,23.0009,0,0.000885,0,0
0:1:48.504,182.462,23.2284,0,0.000885,0,0
0:1:49.314,183.867,23.4077,0,0.000885,0,0
0:1:50.115,185.571,23.6283,0,0.000885,0,0
0:1:50.912,188.502,24.0007,0,0.000885,0,0
0:1:51.702,188.974,24.0627,0,0.000885,0,0
0:1:52.502,190.322,24.2351,0,0.000885,0,0
0:1:53.291,192.021,24.4488,0,0.000885,0,0
0:1:54.103,193.253,24.6074,0,0.000885,0,0
0:1:54.904,195.072,24.8349,0,0.000885,0,0
0:1:55.704,196.656,25.0418,0,0.000885,0,0
0:1:56.503,198.942,25.3313,0,0.000885,0,0
0:1:57.290,199.881,25.4485,0,0.000885,0,0
0:1:58.088,201.464,25.6485,0,0.000885,0,0
0:1:58.884,202.639,25.8002,0,0.000885,0,0
0:1:59.688,204.044,25.9794,0,0.000885,0,0
0:2:0.489,205.922,26.2208,0,0.000885,0,0
0:2:1.283,207.977,26.4828,0,0.000885,0,0
0:2:2.089,209.849,26.7172,0,0.000885,0,0
0:2:2.881,210.557,26.8068,0,0.000885,0,0
0:2:3.678,212.959,27.1171,0,0.000885,0,0
0:2:4.478,213.897,27.2343,0,0.000885,0,0
0:2:5.284,215.365,27.4204,0,0.000885,0,0
0:2:6.101,217.122,27.648,0,0.000885,0,0
0:2:6.890,218.003,27.7583,0,0.000885,0,0
0:2:7.687,220.645,28.0961,0,0.000885,0,0
0:2:8.490,221.584,28.2133,0,0.000885,0,0
0:2:9.293,223.283,28.4271,0,0.000885,0,0
0:2:10.092,224.689,28.6063,0,0.000885,0,0
0:2:10.891,226.686,28.8615,0,0.000885,0,0
0:2:11.691,228.794,29.1303,0,0.000885,0,0
0:2:12.503,229.853,29.2682,0,0.000885,0,0
0:2:13.299,230.965,29.4061,0,0.000885,0,0
0:2:14.104,232.727,29.6337,0,0.000885,0,0
0:2:14.904,234.777,29.8957,0,0.000885,0,0
0:2:15.697,236.125,30.068,0,0.000885,0,0
0:2:16.494,237.593,30.2542,0,0.000885,0,0
0:2:17.294,239.586,30.5024,0,0.000885,0,0
0:2:18.092,240.938,30.6748,0,0.000885,0,0
0:2:18.895,241.699,30.7713,0,0.000885,0,0
0:2:19.698,243.518,31.0057,0,0.000885,0,0
0:2:20.503,245.511,31.2608,0,0.000885,0,0
0:2:21.306,247.094,31.4608,0,0.000885,0,0
0:2:22.090,248.269,31.6125,0,0.000885,0,0
0:2:22.903,250.671,31.9158,0,0.000885,0,0
0:2:23.698,251.609,32.033,0,0.000885,0,0
0:2:24.499,253.019,32.2123,0,0.000885,0,0
0:2:25.293,255.248,32.5019,0,0.000885,0,0
0:2:26.094,256.596,32.6674,0,0.000885,0,0
0:2:26.901,258.295,32.888,0,0.000885,0,0
0:2:27.699,259.941,33.0948,0,0.000885,0,0
0:2:28.491,261.524,33.2948,0,0.000885,0,0
0:2:29.297,263.046,33.4947,0,0.000885,0,0
0:2:30.095,264.513,33.6809,0,0.000885,0,0
0:2:30.880,265.274,33.7774,0,0.000885,0,0
0:2:31.701,267.503,34.0601,0,0.000885,0,0
0:2:32.511,268.797,34.2256,0,0.000885,0,0
0:2:33.297,270.612,34.4531,0,0.000885,0,0
0:2:34.099,272.196,34.6599,0,0.000885,0,0
0:2:34.898,273.428,34.8116,0,0.000885,0,0
0:2:35.700,275.131,35.0323,0,0.000885,0,0
0:2:36.505,276.653,35.2253,0,0.000885,0,0
0:2:37.298,278.823,35.5011,0,0.000885,0,0
0:2:38.102,279.94,35.6459,0,0.000885,0,0
0:2:38.909,281.346,35.8252,0,0.000885,0,0
0:2:39.709,282.693,35.9906,0,0.000885,0,0
0:2:40.497,285.042,36.294,0,0.000885,0,0
0:2:41.297,286.683,36.5008,0,0.000885,0,0
0:2:42.094,287.858,36.6525,0,0.000885,0,0
0:2:42.907,289.557,36.8663,0,0.000885,0,0
0:2:43.699,291.256,37.0869,0,0.000885,0,0
0:2:44.502,292.373,37.2248,0,0.000885,0,0
0:2:45.294,293.605,37.3834,0,0.000885,0,0
0:2:46.095,295.776,37.6592,0,0.000885,0,0
0:2:46.882,297.417,37.866,0,0.000885,0,0
0:2:47.674,299.001,38.0728,0,0.000885,0,0
0:2:48.461,300.113,38.2107,0,0.000885,0,0
0:2:49.265,301.99,38.4521,0,0.000885,0,0
0:2:50.066,303.164,38.5969,0,0.000885,0,0
0:2:50.854,305.041,38.8382,0,0.000885,0,0
0:2:51.645,306.273,38.9967,0,0.000885,0,0
0:2:52.431,308.738,39.307,0,0.000885,0,0
0:2:53.223,309.734,39.438,0,0.000885,0,0
0:2:54.029,311.553,39.6655,0,0.000885,0,0
0:2:54.829,312.608,39.8034,0,0.000885,0,0
0:2:55.618,314.133,39.9965,0,0.000885,0,0
0:2:56.408,315.717,40.1964,0,0.000885,0,0
0:2:57.197,317.243,40.3895,0,0.000885,0,0
0:2:57.994,319.236,40.6446,0,0.000885,0,0
0:2:58.797,320.468,40.8032,0,0.000885,0,0
0:2:59.600,322.696,41.0859,0,0.000885,0,0
0:3:0.401,324.102,41.2651,0,0.000885,0,0
0:3:1.208,324.805,41.3548,0,0.000885,0,0
0:3:2.010,327.389,41.6857,0,0.000885,0,0
0:3:2.811,328.853,41.8719,0,0.000885,0,0
0:3:3.615,329.849,41.996,0,0.000885,0,0
0:3:4.421,331.61,42.2235,0,0.000885,0,0
0:3:5.216,333.31,42.4372,0,0.000885,0,0
0:3:6.008,334.542,42.5958,0,0.000885,0,0
0:3:6.796,336.183,42.8027,0,0.000885,0,0
0:3:7.586,337.829,43.0164,0,0.000885,0,0
0:3:8.377,339.528,43.2301,0,0.000885,0,0
0:3:9.183,340.934,43.4094,0,0.000885,0,0
0:3:9.984,342.753,43.6438,0,0.000885,0,0
0:3:10.773,344.043,43.8024,0,0.000885,0,0
0:3:11.564,345.333,43.9679,0,0.000885,0,0
0:3:12.354,347.268,44.2161,0,0.000885,0,0
0:3:13.144,348.62,44.3884,0,0.000885,0,0
0:3:13.947,350.026,44.5677,0,0.000885,0,0
0:3:14.749,351.725,44.7814,0,0.000885,0,0
0:3:15.545,353.015,44.9469,0,0.000885,0,0
0:3:16.331,354.132,45.0917,0,0.000885,0,0
0:3:17.126,356.303,45.3675,0,0.000885,0,0
0:3:17.916,357.766,45.5537,0,0.000885,0,0
0:3:18.720,359.234,45.7398,0,0.000885,0,0
0:3:19.521,360.644,45.9191,0,0.000885,0,0
0:3:20.318,361.289,46.0018,0,0.000885,0,0
0:3:21.112,362.873,46.2018,0,0.000885,0,0
0:3:21.897,363.749,46.3121,0,0.000885,0,0
0:3:22.698,363.34,46.2638,0,0.000885,0,0
0:3:23.505,361.578,46.0363,0,0.000885,0,0
0:3:24.306,350.204,44.5884,0,0.000885,0,0
0:3:25.098,268.268,34.1566,0,0.000885,0,0
0:3:25.267,259.647,33.0604,0,0.000885,0,0