Folder: Experiment-Files (part 13)

File: DataFile2021-06-07_050159.csv
Test ID:,Date Tested:,Time:,Test Type:,Diameter Avg. (mm):,Cyl. Corr. Factor:,Height (mm):,Age (days):,Weight (kN):,Break Type:,Ramp Rate (MPa/s):,Load at Break (kN):,Stress at Break (MPa):
12,6/7/2021,05:01,Cylinder,100,1,200,0,3.6,3,0.25,683.12,86.98
Sample Time,Load (kN),Stress (MPa),Long. Strain,Trans. Strain,Chan1 Deflection (mm),Chan2 Deflection (mm)
0:0:13.259,5.21776,0.661897,0,0.000885,0,0
0:0:14.779,9.03434,1.15142,0,0.000885,0,0
0:0:16.280,10.3243,1.3169,0,0.000885,0,0
0:0:17.771,12.9621,1.64785,0,0.000885,0,0
0:0:19.277,17.0678,2.17185,0,0.000885,0,0
0:0:20.780,20.3506,2.59243,0,0.000885,0,0
0:0:22.273,23.1663,2.95096,0,0.000885,0,0
0:0:23.768,26.2178,3.33706,0,0.000885,0,0
0:0:25.284,28.5042,3.62664,0,0.000885,0,0
0:0:26.778,32.0806,4.0817,0,0.000885,0,0
0:0:28.267,34.8385,4.43333,0,0.000885,0,0
0:0:29.781,37.89,4.82633,0,0.000885,0,0
0:0:31.281,40.7012,5.18486,0,0.000885,0,0
0:0:32.782,43.3435,5.51581,0,0.000885,0,0
0:0:34.284,46.2748,5.89502,0,0.000885,0,0
0:0:35.790,49.442,6.29491,0,0.000885,0,0
0:0:37.282,52.3734,6.66723,0,0.000885,0,0
0:0:38.776,55.0156,7.00507,0,0.000885,0,0
0:0:40.292,58.2406,7.41876,0,0.000885,0,0
0:0:41.784,61.2298,7.79797,0,0.000885,0,0
0:0:43.274,64.2234,8.17718,0,0.000885,0,0
0:0:44.789,66.7456,8.50124,0,0.000885,0,0
0:0:46.284,70.144,8.92871,0,0.000885,0,0
0:0:47.778,72.8441,9.27345,0,0.000885,0,0
0:0:49.294,75.7176,9.63887,0,0.000885,0,0
0:0:50.799,78.7068,10.025,0,0.000885,0,0
0:0:52.291,82.2877,10.48,0,0.000885,0,0
0:0:53.782,85.219,10.8523,0,0.000885,0,0
0:0:55.300,87.7412,11.1695,0,0.000885,0,0
0:0:56.791,90.9083,11.5763,0,0.000885,0,0
0:0:58.282,93.724,11.9348,0,0.000885,0,0
0:0:59.799,96.7755,12.3209,0,0.000885,0,0
0:1:1.290,99.1197,12.6174,0,0.000885,0,0
0:1:2.784,102.171,13.0104,0,0.000885,0,0
0:1:4.291,105.338,13.4103,0,0.000885,0,0
0:1:5.797,108.443,13.8102,0,0.000885,0,0
0:1:7.290,111.201,14.1618,0,0.000885,0,0
0:1:8.784,114.017,14.5204,0,0.000885,0,0
0:1:10.301,117.184,14.9203,0,0.000885,0,0
0:1:11.792,119.942,15.2719,0,0.000885,0,0
0:1:13.284,123.46,15.72,0,0.000885,0,0
0:1:14.797,126.685,16.1268,0,0.000885,0,0
0:1:16.296,129.03,16.4302,0,0.000885,0,0
0:1:17.788,131.672,16.768,0,0.000885,0,0
0:1:19.298,134.897,17.1748,0,0.000885,0,0
0:1:20.798,138.122,17.5885,0,0.000885,0,0
0:1:22.287,140.466,17.885,0,0.000885,0,0
0:1:23.789,144.047,18.3401,0,0.000885,0,0
0:1:25.300,146.155,18.6089,0,0.000885,0,0
0:1:26.791,149.852,19.0778,0,0.000885,0,0
0:1:28.285,152.725,19.4432,0,0.000885,0,0
0:1:29.795,155.777,19.8362,0,0.000885,0,0
0:1:31.295,158.415,20.1672,0,0.000885,0,0
0:1:32.788,161.582,20.574,0,0.000885,0,0
0:1:34.293,163.868,20.8635,0,0.000885,0,0
0:1:35.800,166.862,21.2427,0,0.000885,0,0
0:1:37.291,169.971,21.6426,0,0.000885,0,0
0:1:38.782,173.018,22.0287,0,0.000885,0,0
0:1:40.298,176.305,22.4493,0,0.000885,0,0
0:1:41.790,178.472,22.7251,0,0.000885,0,0
0:1:43.282,181.874,23.1595,0,0.000885,0,0
0:1:44.800,184.926,23.5456,0,0.000885,0,0
0:1:46.292,188.093,23.9455,0,0.000885,0,0
0:1:47.784,190.322,24.2351,0,0.000885,0,0
0:1:49.288,193.489,24.635,0,0.000885,0,0
0:1:50.782,196.598,25.0349,0,0.000885,0,0
0:1:52.283,199.645,25.421,0,0.000885,0,0
0:1:53.785,202.87,25.8278,0,0.000885,0,0
0:1:55.291,205.099,26.1173,0,0.000885,0,0
0:1:56.790,208.15,26.5034,0,0.000885,0,0
0:1:58.291,211.726,26.9585,0,0.000885,0,0
0:1:59.789,213.839,27.2274,0,0.000885,0,0
0:2:1.286,217.3,27.6687,0,0.000885,0,0
0:2:2.777,220.352,28.0548,0,0.000885,0,0
0:2:4.276,223.283,28.4271,0,0.000885,0,0
0:2:5.787,226.686,28.8615,0,0.000885,0,0
0:2:7.289,228.736,29.1235,0,0.000885,0,0
0:2:8.786,232.082,29.5509,0,0.000885,0,0
0:2:10.289,234.955,29.9164,0,0.000885,0,0
0:2:11.789,237.593,30.2542,0,0.000885,0,0
0:2:13.290,241.232,30.7161,0,0.000885,0,0
0:2:14.799,243.398,30.9919,0,0.000885,0,0
0:2:16.286,246.449,31.378,0,0.000885,0,0
0:2:17.786,249.852,31.8124,0,0.000885,0,0
0:2:19.298,253.019,32.2123,0,0.000885,0,0
0:2:20.792,255.541,32.5364,0,0.000885,0,0
0:2:22.285,258.473,32.9087,0,0.000885,0,0
0:2:23.779,261.053,33.2396,0,0.000885,0,0
0:2:25.292,264.162,33.6326,0,0.000885,0,0
0:2:26.786,266.858,33.9774,0,0.000885,0,0
0:2:28.286,269.794,34.3497,0,0.000885,0,0
0:2:29.795,272.903,34.7496,0,0.000885,0,0
0:2:31.293,276.243,35.1702,0,0.000885,0,0
0:2:32.782,279.237,35.5563,0,0.000885,0,0
0:2:34.293,281.817,35.8803,0,0.000885,0,0
0:2:35.789,285.1,36.3009,0,0.000885,0,0
0:2:37.290,287.858,36.6525,0,0.000885,0,0
0:2:38.793,290.673,37.0111,0,0.000885,0,0
0:2:40.289,294.072,37.4454,0,0.000885,0,0
0:2:41.790,296.945,37.8108,0,0.000885,0,0
0:2:43.290,299.468,38.128,0,0.000885,0,0
0:2:44.791,302.341,38.4934,0,0.000885,0,0
0:2:46.287,305.508,38.9002,0,0.000885,0,0
0:2:47.789,307.857,39.1967,0,0.000885,0,0
0:2:49.301,311.491,39.6586,0,0.000885,0,0
0:2:50.797,315.072,40.1137,0,0.000885,0,0
0:2:52.289,317.594,40.4378,0,0.000885,0,0
0:2:53.797,320.583,40.817,0,0.000885,0,0
0:2:55.302,323.283,41.1617,0,0.000885,0,0
0:2:56.793,326.388,41.5547,0,0.000885,0,0
0:2:58.293,328.853,41.8719,0,0.000885,0,0
0:2:59.793,332.198,42.2993,0,0.000885,0,0
0:3:1.293,335.245,42.6854,0,0.000885,0,0
0:3:2.783,337.593,42.9819,0,0.000885,0,0
0:3:4.296,340.703,43.3818,0,0.000885,0,0
0:3:5.794,343.985,43.7955,0,0.000885,0,0
0:3:7.296,346.45,44.1127,0,0.000885,0,0
0:3:8.795,349.733,44.5263,0,0.000885,0,0
0:3:10.292,352.957,44.94,0,0.000885,0,0
0:3:11.795,356.009,45.3261,0,0.000885,0,0
0:3:13.284,358.998,45.7122,0,0.000885,0,0
0:3:14.799,360.995,45.9605,0,0.000885,0,0
0:3:16.296,364.514,46.4086,0,0.000885,0,0
0:3:17.797,367.33,46.7671,0,0.000885,0,0
0:3:19.300,370.377,47.1601,0,0.000885,0,0
0:3:20.793,372.899,47.4773,0,0.000885,0,0
0:3:22.305,375.772,47.8427,0,0.000885,0,0
0:3:23.795,379.117,48.2702,0,0.000885,0,0
0:3:25.300,382.752,48.7321,0,0.000885,0,0
0:3:26.792,385.1,49.0355,0,0.000885,0,0
0:3:28.292,388.147,49.4216,0,0.000885,0,0
0:3:29.800,391.199,49.8077,0,0.000885,0,0
0:3:31.292,393.899,50.1525,0,0.000885,0,0
0:3:32.797,397.124,50.5661,0,0.000885,0,0
0:3:34.303,399.82,50.904,0,0.000885,0,0
0:3:35.797,402.462,51.2418,0,0.000885,0,0
0:3:37.298,406.096,51.7038,0,0.000885,0,0
0:3:38.799,408.56,52.0209,0,0.000885,0,0
0:3:40.304,411.434,52.3864,0,0.000885,0,0
0:3:41.792,414.423,52.7656,0,0.000885,0,0
0:3:43.294,417.532,53.1586,0,0.000885,0,0
0:3:44.800,420.232,53.5033,0,0.000885,0,0
0:3:46.302,423.457,53.917,0,0.000885,0,0
0:3:47.793,426.389,54.2893,0,0.000885,0,0
0:3:49.303,429.32,54.6616,0,0.000885,0,0
0:3:50.796,432.314,55.0408,0,0.000885,0,0
0:3:52.297,435.009,55.3856,0,0.000885,0,0
0:3:53.799,438.003,55.7648,0,0.000885,0,0
0:3:55.303,440.934,56.144,0,0.000885,0,0
0:3:56.791,444.337,56.5715,0,0.000885,0,0
0:3:58.296,447.153,56.93,0,0.000885,0,0
0:3:59.804,450.787,57.3989,0,0.000885,0,0
0:4:1.301,452.549,57.6195,0,0.000885,0,0
0:4:2.802,455.889,58.047,0,0.000885,0,0
0:4:4.305,458.763,58.4124,0,0.000885,0,0
0:4:5.800,461.579,58.7709,0,0.000885,0,0
0:4:7.299,464.688,59.1639,0,0.000885,0,0
0:4:8.801,467.561,59.5293,0,0.000885,0,0
0:4:10.297,470.377,59.8879,0,0.000885,0,0
0:4:11.797,473.366,60.274,0,0.000885,0,0
0:4:13.299,476.36,60.6532,0,0.000885,0,0
0:4:14.804,479.176,61.0117,0,0.000885,0,0
0:4:16.297,482.049,61.3771,0,0.000885,0,0
0:4:17.799,485.51,61.8184,0,0.000885,0,0
0:4:19.307,488.09,62.1424,0,0.000885,0,0
0:4:20.799,490.848,62.4941,0,0.000885,0,0
0:4:22.299,494.54,62.9698,0,0.000885,0,0
0:4:23.791,497.12,63.2939,0,0.000885,0,0
0:4:25.308,500.056,63.6662,0,0.000885,0,0
0:4:26.793,502.578,63.9902,0,0.000885,0,0
0:4:28.298,506.27,64.4591,0,0.000885,0,0
0:4:29.805,508.676,64.7693,0,0.000885,0,0
0:4:31.302,511.608,65.1417,0,0.000885,0,0
0:4:32.802,515.011,65.576,0,0.000885,0,0
0:4:34.312,517.533,65.8932,0,0.000885,0,0
0:4:35.800,520.055,66.2172,0,0.000885,0,0
0:4:37.301,523.631,66.6723,0,0.000885,0,0
0:4:38.806,526.741,67.0653,0,0.000885,0,0
0:4:40.310,529.085,67.3687,0,0.000885,0,0
0:4:41.804,532.666,67.8237,0,0.000885,0,0
0:4:43.306,535.068,68.1271,0,0.000885,0,0
0:4:44.805,538.119,68.5132,0,0.000885,0,0
0:4:46.304,541.166,68.9062,0,0.000885,0,0
0:4:47.789,544.511,69.3268,0,0.000885,0,0
0:4:49.288,546.855,69.6302,0,0.000885,0,0
0:4:50.786,549.849,70.0094,0,0.000885,0,0
0:4:52.300,553.719,70.4989,0,0.000885,0,0
0:4:53.805,555.712,70.754,0,0.000885,0,0
0:4:55.307,558.821,71.1539,0,0.000885,0,0
0:4:56.802,561.873,71.54,0,0.000885,0,0
0:4:58.304,564.982,71.933,0,0.000885,0,0
0:4:59.804,567.504,72.2571,0,0.000885,0,0
0:5:1.301,571.196,72.7259,0,0.000885,0,0
0:5:2.802,573.367,73.0017,0,0.000885,0,0
0:5:4.309,576.183,73.3602,0,0.000885,0,0
0:5:5.806,579.408,73.7739,0,0.000885,0,0
0:5:7.306,582.575,74.1738,0,0.000885,0,0
0:5:8.806,585.506,74.5461,0,0.000885,0,0
0:5:10.305,588.442,74.9253,0,0.000885,0,0
0:5:11.799,591.551,75.3183,0,0.000885,0,0
0:5:13.310,594.073,75.6424,0,0.000885,0,0
0:5:14.819,597.125,76.0285,0,0.000885,0,0
0:5:16.315,600.003,76.3939,0,0.000885,0,0
0:5:17.798,602.645,76.7318,0,0.000885,0,0
0:5:19.308,605.874,77.1454,0,0.000885,0,0
0:5:20.810,608.632,77.4902,0,0.000885,0,0
0:5:22.308,612.213,77.9521,0,0.000885,0,0
0:5:23.817,615.149,78.3244,0,0.000885,0,0
0:5:25.321,617.907,78.6761,0,0.000885,0,0
0:5:26.809,621.136,79.0829,0,0.000885,0,0
0:5:28.297,623.894,79.4345,0,0.000885,0,0
0:5:29.812,626.768,79.7999,0,0.000885,0,0
0:5:31.313,629.588,80.1584,0,0.000885,0,0
0:5:32.812,632.168,80.4894,0,0.000885,0,0
0:5:34.320,635.691,80.9376,0,0.000885,0,0
0:5:35.823,638.333,81.2754,0,0.000885,0,0
0:5:37.312,641.678,81.7029,0,0.000885,0,0
0:5:38.798,644.556,82.0683,0,0.000885,0,0
0:5:40.312,647.021,82.3786,0,0.000885,0,0
0:5:41.802,650.601,82.8405,0,0.000885,0,0
0:5:43.312,652.834,83.1232,0,0.000885,0,0
0:5:44.820,656.353,83.5714,0,0.000885,0,0
0:5:46.313,656.122,83.5369,0,0.000885,0,0
0:5:47.812,660.463,84.0954,0,0.000885,0,0
0:5:49.318,665.57,84.7435,0,0.000885,0,0
0:5:50.815,668.27,85.0882,0,0.000885,0,0
0:5:52.301,670.089,85.3157,0,0.000885,0,0
0:5:53.806,674.199,85.8397,0,0.000885,0,0
0:5:55.316,676.663,86.1569,0,0.000885,0,0
0:5:56.800,677.077,86.2052,0,0.000885,0,0
0:5:58.300,680.947,86.7016,0,0.000885,0,0
0:5:59.815,621.368,79.1173,0,0.000885,0,0
0:6:1.304,582.517,74.1669,0,0.000885,0,0
0:6:2.801,572.544,72.8983,0,0.000885,0,0
0:6:4.309,538.293,68.5408,0,0.000885,0,0
0:6:4.921,499.411,63.5835,0,0.000885,0,0

File: DataFile2021-06-07_051301.csv
Test ID:,Date Tested:,Time:,Test Type:,Diameter Avg. (mm):,Cyl. Corr. Factor:,Height (mm):,Age (days):,Weight (kN):,Break Type:,Ramp Rate (MPa/s):,Load at Break (kN):,Stress at Break (MPa):
12,6/7/2021,05:13,Cylinder,100,1,200,0,3.6,3,0.25,692.57,88.18
Sample Time,Load (kN),Stress (MPa),Long. Strain,Trans. Strain,Chan1 Deflection (mm),Chan2 Deflection (mm)
0:0:13.818,5.33787,0.682581,0,0.000885,0,0
0:0:15.307,12.5529,1.59958,0,0.000885,0,0
0:0:16.793,11.9657,1.52374,0,0.000885,0,0
0:0:18.281,13.0778,1.66853,0,0.000885,0,0
0:0:19.792,16.1293,2.05464,0,0.000885,0,0
0:0:21.300,20.235,2.57864,0,0.000885,0,0
0:0:22.791,22.637,2.88201,0,0.000885,0,0
0:0:24.282,25.515,3.24743,0,0.000885,0,0
0:0:25.798,28.4464,3.61975,0,0.000885,0,0
0:0:27.288,31.3778,3.99206,0,0.000885,0,0
0:0:28.782,34.3091,4.37128,0,0.000885,0,0
0:0:30.297,37.4763,4.77117,0,0.000885,0,0
0:0:31.790,40.5277,5.15728,0,0.000885,0,0
0:0:33.284,43.6371,5.55717,0,0.000885,0,0
0:0:34.791,46.9198,5.97086,0,0.000885,0,0
0:0:36.298,49.3842,6.28802,0,0.000885,0,0
0:0:37.791,52.4935,6.68102,0,0.000885,0,0
0:0:39.283,55.4827,7.06713,0,0.000885,0,0
0:0:40.798,57.7691,7.35671,0,0.000885,0,0
0:0:42.289,60.9362,7.7566,0,0.000885,0,0
0:0:43.780,64.0455,8.1565,0,0.000885,0,0
0:0:45.298,67.0391,8.53571,0,0.000885,0,0
0:0:46.789,70.144,8.92871,0,0.000885,0,0
0:0:48.283,72.9019,9.28034,0,0.000885,0,0
0:0:49.793,75.4819,9.61129,0,0.000885,0,0
0:0:51.292,78.8269,10.0388,0,0.000885,0,0
0:0:52.786,81.7583,10.4111,0,0.000885,0,0
0:0:54.281,84.574,10.7696,0,0.000885,0,0
0:0:55.797,88.2082,11.2316,0,0.000885,0,0
0:0:57.288,91.024,11.5901,0,0.000885,0,0
0:0:58.781,93.5461,11.9141,0,0.000885,0,0
0:1:0.291,96.304,12.2589,0,0.000885,0,0
0:1:1.793,99.8225,12.707,0,0.000885,0,0
0:1:3.283,102.58,13.0587,0,0.000885,0,0
0:1:4.793,105.454,13.4241,0,0.000885,0,0
0:1:6.300,108.328,13.7895,0,0.000885,0,0
0:1:7.791,112.024,14.2653,0,0.000885,0,0
0:1:9.283,113.839,14.4928,0,0.000885,0,0
0:1:10.799,116.948,14.8927,0,0.000885,0,0
0:1:12.292,119.942,15.2719,0,0.000885,0,0
0:1:13.785,122.344,15.5753,0,0.000885,0,0
0:1:15.298,125.983,16.0372,0,0.000885,0,0
0:1:16.790,128.736,16.3888,0,0.000885,0,0
0:1:18.281,131.845,16.7887,0,0.000885,0,0
0:1:19.791,135.07,17.1955,0,0.000885,0,0
0:1:21.294,138.237,17.6023,0,0.000885,0,0
0:1:22.788,140.702,17.9126,0,0.000885,0,0
0:1:24.290,142.988,18.2091,0,0.000885,0,0
0:1:25.805,146.627,18.671,0,0.000885,0,0
0:1:27.298,150.03,19.1054,0,0.000885,0,0
0:1:28.789,151.551,19.2984,0,0.000885,0,0
0:1:30.298,155.425,19.788,0,0.000885,0,0
0:1:31.796,157.885,20.1051,0,0.000885,0,0
0:1:33.284,160.585,20.443,0,0.000885,0,0
0:1:34.796,164.575,20.9532,0,0.000885,0,0
0:1:36.294,166.92,21.2496,0,0.000885,0,0
0:1:37.789,170.265,21.6771,0,0.000885,0,0
0:1:39.294,173.312,22.0701,0,0.000885,0,0
0:1:40.808,175.598,22.3597,0,0.000885,0,0
0:1:42.302,178.534,22.732,0,0.000885,0,0
0:1:43.793,181.932,23.1664,0,0.000885,0,0
0:1:45.303,184.632,23.5111,0,0.000885,0,0
0:1:46.801,187.684,23.8972,0,0.000885,0,0
0:1:48.291,190.086,24.2006,0,0.000885,0,0
0:1:49.799,193.489,24.635,0,0.000885,0,0
0:1:51.286,196.829,25.0624,0,0.000885,0,0
0:1:52.776,199.529,25.4072,0,0.000885,0,0
0:1:54.272,202.403,25.7726,0,0.000885,0,0
0:1:55.776,205.334,26.1449,0,0.000885,0,0
0:1:57.276,208.092,26.4966,0,0.000885,0,0
0:1:58.777,211.202,26.8896,0,0.000885,0,0
0:2:0.295,214.133,27.2619,0,0.000885,0,0
0:2:1.781,216.891,27.6135,0,0.000885,0,0
0:2:3.261,219.644,27.9651,0,0.000885,0,0
0:2:4.751,222.638,28.3443,0,0.000885,0,0
0:2:6.246,225.805,28.7511,0,0.000885,0,0
0:2:7.727,229.324,29.1993,0,0.000885,0,0
0:2:9.214,231.494,29.4751,0,0.000885,0,0
0:2:10.718,234.897,29.9095,0,0.000885,0,0
0:2:12.201,237.241,30.2059,0,0.000885,0,0
0:2:13.681,240.293,30.592,0,0.000885,0,0
0:2:15.182,243.224,30.9712,0,0.000885,0,0
0:2:16.669,246.334,31.3643,0,0.000885,0,0
0:2:18.169,249.501,31.7641,0,0.000885,0,0
0:2:19.678,252.316,32.1227,0,0.000885,0,0
0:2:21.188,255.128,32.4812,0,0.000885,0,0
0:2:22.690,258.179,32.8742,0,0.000885,0,0
0:2:24.178,260.879,33.2189,0,0.000885,0,0
0:2:25.676,264.104,33.6257,0,0.000885,0,0
0:2:27.177,267.036,33.998,0,0.000885,0,0
0:2:28.670,270.318,34.4186,0,0.000885,0,0
0:2:30.173,272.547,34.7013,0,0.000885,0,0
0:2:31.688,275.892,35.1288,0,0.000885,0,0
0:2:33.190,278.823,35.5011,0,0.000885,0,0
0:2:34.694,281.581,35.8527,0,0.000885,0,0
0:2:36.185,284.633,36.2388,0,0.000885,0,0
0:2:37.679,287.564,36.6112,0,0.000885,0,0
0:2:39.181,290.673,37.0111,0,0.000885,0,0
0:2:40.685,293.721,37.3972,0,0.000885,0,0
0:2:42.176,296.243,37.7212,0,0.000885,0,0
0:2:43.656,299.058,38.0797,0,0.000885,0,0
0:2:45.156,302.697,38.5417,0,0.000885,0,0
0:2:46.644,305.157,38.852,0,0.000885,0,0
0:2:48.123,308.56,39.2863,0,0.000885,0,0
0:2:49.615,310.788,39.569,0,0.000885,0,0
0:2:51.109,313.898,39.9689,0,0.000885,0,0
0:2:52.590,316.713,40.3274,0,0.000885,0,0
0:2:54.077,319.645,40.6998,0,0.000885,0,0
0:2:55.585,322.812,41.0996,0,0.000885,0,0
0:2:57.082,325.57,41.4513,0,0.000885,0,0
0:2:58.595,328.795,41.865,0,0.000885,0,0
0:3:0.094,331.962,42.2649,0,0.000885,0,0
0:3:1.598,334.6,42.6027,0,0.000885,0,0
0:3:3.098,337.945,43.0302,0,0.000885,0,0
0:3:4.597,340.876,43.4025,0,0.000885,0,0
0:3:6.089,343.283,43.7059,0,0.000885,0,0
0:3:7.599,346.623,44.1333,0,0.000885,0,0
0:3:9.085,349.617,44.5126,0,0.000885,0,0
0:3:10.589,352.077,44.8297,0,0.000885,0,0
0:3:12.099,354.892,45.1882,0,0.000885,0,0
0:3:13.599,357.944,45.5743,0,0.000885,0,0
0:3:15.103,360.76,45.9329,0,0.000885,0,0
0:3:16.601,364.1,46.3603,0,0.000885,0,0
0:3:18.093,366.391,46.6499,0,0.000885,0,0
0:3:19.605,369.732,47.0774,0,0.000885,0,0
0:3:21.100,373.192,47.5187,0,0.000885,0,0
0:3:22.601,376.066,47.8841,0,0.000885,0,0
0:3:24.104,378.824,48.2357,0,0.000885,0,0
0:3:25.610,381.813,48.6149,0,0.000885,0,0
0:3:27.090,384.571,48.9666,0,0.000885,0,0
0:3:28.587,387.738,49.3665,0,0.000885,0,0
0:3:30.091,390.612,49.7319,0,0.000885,0,0
0:3:31.584,393.192,50.0628,0,0.000885,0,0
0:3:33.067,396.537,50.4903,0,0.000885,0,0
0:3:34.566,399.295,50.8419,0,0.000885,0,0
0:3:36.057,401.754,51.1522,0,0.000885,0,0
0:3:37.540,404.922,51.559,0,0.000885,0,0
0:3:39.027,408.44,52.0072,0,0.000885,0,0
0:3:40.532,410.437,52.2554,0,0.000885,0,0
0:3:42.016,413.956,52.7035,0,0.000885,0,0
0:3:43.500,416.3,53.0069,0,0.000885,0,0
0:3:44.999,419.997,53.4757,0,0.000885,0,0
0:3:46.497,422.461,53.786,0,0.000885,0,0
0:3:47.986,425.277,54.1445,0,0.000885,0,0
0:3:49.485,428.502,54.5582,0,0.000885,0,0
0:3:51.004,431.611,54.9512,0,0.000885,0,0
0:3:52.494,434.422,55.3097,0,0.000885,0,0
0:3:53.985,438.003,55.7648,0,0.000885,0,0
0:3:55.492,440.174,56.0475,0,0.000885,0,0
0:3:56.986,443.341,56.4474,0,0.000885,0,0
0:3:58.487,446.388,56.8335,0,0.000885,0,0
0:3:59.992,449.382,57.2196,0,0.000885,0,0
0:4:1.498,452.255,57.585,0,0.000885,0,0
0:4:3.001,454.542,57.8746,0,0.000885,0,0
0:4:4.492,458.469,58.371,0,0.000885,0,0
0:4:5.987,460.876,58.6813,0,0.000885,0,0
0:4:7.499,463.927,59.0674,0,0.000885,0,0
0:4:9.000,466.916,59.4466,0,0.000885,0,0
0:4:10.505,470.084,59.8534,0,0.000885,0,0
0:4:11.993,472.899,60.2119,0,0.000885,0,0
0:4:13.482,475.479,60.5429,0,0.000885,0,0
0:4:14.985,478.646,60.9428,0,0.000885,0,0
0:4:16.499,481.636,61.322,0,0.000885,0,0
0:4:17.989,484.22,61.6529,0,0.000885,0,0
0:4:19.509,487.387,62.0528,0,0.000885,0,0
0:4:21.003,489.789,62.3631,0,0.000885,0,0
0:4:22.505,493.486,62.8319,0,0.000885,0,0
0:4:24.008,496.711,63.2456,0,0.000885,0,0
0:4:25.514,499.175,63.5559,0,0.000885,0,0
0:4:27.007,502.636,63.9971,0,0.000885,0,0
0:4:28.486,505.451,64.3557,0,0.000885,0,0
0:4:29.992,508.205,64.7073,0,0.000885,0,0
0:4:31.483,511.314,65.1003,0,0.000885,0,0
0:4:32.965,513.894,65.4312,0,0.000885,0,0
0:4:34.465,516.71,65.7898,0,0.000885,0,0
0:4:35.960,520.055,66.2172,0,0.000885,0,0
0:4:37.441,522.399,66.5137,0,0.000885,0,0
0:4:38.933,525.744,66.9412,0,0.000885,0,0
0:4:40.441,528.676,67.3135,0,0.000885,0,0
0:4:41.923,531.607,67.6858,0,0.000885,0,0
0:4:43.405,534.481,68.0513,0,0.000885,0,0
0:4:44.911,537.238,68.4029,0,0.000885,0,0
0:4:46.399,540.348,68.7959,0,0.000885,0,0
0:4:47.903,543.106,69.1475,0,0.000885,0,0
0:4:49.402,545.979,69.5129,0,0.000885,0,0
0:4:50.904,549.44,69.9542,0,0.000885,0,0
0:4:52.393,552.136,70.2989,0,0.000885,0,0
0:4:53.875,555.067,70.6713,0,0.000885,0,0
0:4:55.381,558.292,71.0849,0,0.000885,0,0
0:4:56.865,561.285,71.4642,0,0.000885,0,0
0:4:58.343,563.572,71.7537,0,0.000885,0,0
0:4:59.852,566.917,72.1812,0,0.000885,0,0
0:5:1.332,569.613,72.526,0,0.000885,0,0
0:5:2.818,572.486,72.8914,0,0.000885,0,0
0:5:4.316,575.773,73.312,0,0.000885,0,0
0:5:5.805,578.353,73.636,0,0.000885,0,0
0:5:7.287,581.169,73.9945,0,0.000885,0,0
0:5:8.791,584.567,74.4289,0,0.000885,0,0
0:5:10.292,587.383,74.7874,0,0.000885,0,0
0:5:11.784,589.968,75.1184,0,0.000885,0,0
0:5:13.274,593.193,75.5252,0,0.000885,0,0
0:5:14.781,596.422,75.9389,0,0.000885,0,0
0:5:16.306,598.828,76.2422,0,0.000885,0,0
0:5:17.805,601.764,76.6214,0,0.000885,0,0
0:5:19.306,604.055,76.911,0,0.000885,0,0
0:5:20.811,607.694,77.373,0,0.000885,0,0
0:5:22.312,611.8,77.897,0,0.000885,0,0
0:5:23.807,613.503,78.1107,0,0.000885,0,0
0:5:25.321,617.026,78.5589,0,0.000885,0,0
0:5:26.809,619.842,78.9243,0,0.000885,0,0
0:5:28.297,622.484,79.2552,0,0.000885,0,0
0:5:29.809,624.303,79.4897,0,0.000885,0,0
0:5:31.295,628.823,80.0619,0,0.000885,0,0
0:5:32.783,630.469,80.2757,0,0.000885,0,0
0:5:34.285,634.637,80.8066,0,0.000885,0,0
0:5:35.786,637.51,81.172,0,0.000885,0,0
0:5:37.274,640.152,81.5098,0,0.000885,0,0
0:5:38.760,643.44,81.9235,0,0.000885,0,0
0:5:40.272,646.14,82.2682,0,0.000885,0,0
0:5:41.759,648.666,82.5923,0,0.000885,0,0
0:5:43.249,651.66,82.9715,0,0.000885,0,0
0:5:44.761,654.827,83.3783,0,0.000885,0,0
0:5:46.250,657.585,83.7299,0,0.000885,0,0
0:5:47.736,660.227,84.0609,0,0.000885,0,0
0:5:49.244,664.395,84.5918,0,0.000885,0,0
0:5:50.742,666.215,84.8262,0,0.000885,0,0
0:5:52.231,670.267,85.3433,0,0.000885,0,0
0:5:53.719,672.673,85.6467,0,0.000885,0,0
0:5:55.229,675.547,86.0121,0,0.000885,0,0
0:5:56.715,678.189,86.3499,0,0.000885,0,0
0:5:58.211,681.476,86.7705,0,0.000885,0,0
0:5:59.717,683.589,87.0394,0,0.000885,0,0
0:6:1.212,685.293,87.2532,0,0.000885,0,0
0:6:2.705,688.402,87.653,0,0.000885,0,0
0:6:4.215,693.215,88.2598,0,0.000885,0,0
0:6:5.705,671.499,85.495,0,0.000885,0,0
0:6:6.124,618.374,78.7312,0,0.000885,0,0