Folder: Experiment-Files (part 33)

File: DataFile2021-06-08_072940.csv
Test ID:,Date Tested:,Time:,Test Type:,Diameter Avg. (mm):,Cyl. Corr. Factor:,Height (mm):,Age (days):,Weight (kN):,Break Type:,Ramp Rate (MPa/s):,Load at Break (kN):,Stress at Break (MPa):
12,6/8/2021,07:29,Cylinder,100,1,200,0,3.6,3,0.22,236.54,30.12
Sample Time,Load (kN),Stress (MPa),Long. Strain,Trans. Strain,Chan1 Deflection (mm),Chan2 Deflection (mm)
0:0:20.731,5.8672,0.744634,0,0.000885,0,0
0:0:21.326,13.4292,1.7099,0,0.000885,0,0
0:0:21.915,12.2015,1.55132,0,0.000885,0,0
0:0:22.509,11.6721,1.48927,0,0.000885,0,0
0:0:23.127,11.4942,1.46169,0,0.000885,0,0
0:0:23.733,11.4942,1.46169,0,0.000885,0,0
0:0:24.328,11.4942,1.46169,0,0.000885,0,0
0:0:24.919,12.2015,1.55132,0,0.000885,0,0
0:0:25.514,13.1356,1.67543,0,0.000885,0,0
0:0:26.107,14.7814,1.88227,0,0.000885,0,0
0:0:26.714,15.8935,2.02706,0,0.000885,0,0
0:0:27.319,17.5972,2.2408,0,0.000885,0,0
0:0:27.926,19.2386,2.44764,0,0.000885,0,0
0:0:28.532,20.5864,2.62001,0,0.000885,0,0
0:0:29.127,22.2278,2.82685,0,0.000885,0,0
0:0:29.725,23.4599,2.98543,0,0.000885,0,0
0:0:30.320,24.7499,3.1509,0,0.000885,0,0
0:0:30.919,25.7463,3.27501,0,0.000885,0,0
0:0:31.530,26.8628,3.4198,0,0.000885,0,0
0:0:32.133,27.5656,3.50943,0,0.000885,0,0
0:0:32.732,28.6821,3.65422,0,0.000885,0,0
0:0:33.328,29.3271,3.73696,0,0.000885,0,0
0:0:33.927,30.9107,3.93691,0,0.000885,0,0
0:0:34.526,31.9071,4.06101,0,0.000885,0,0
0:0:35.133,33.6063,4.28164,0,0.000885,0,0
0:0:35.729,34.4871,4.39196,0,0.000885,0,0
0:0:36.330,35.8349,4.56433,0,0.000885,0,0
0:0:36.939,37.1827,4.7367,0,0.000885,0,0
0:0:37.543,38.4148,4.88838,0,0.000885,0,0
0:0:38.142,39.5892,5.04007,0,0.000885,0,0
0:0:38.739,40.5277,5.15728,0,0.000885,0,0
0:0:39.335,42.1113,5.36412,0,0.000885,0,0
0:0:39.928,42.9342,5.46754,0,0.000885,0,0
0:0:40.526,43.9306,5.59165,0,0.000885,0,0
0:0:41.133,45.3941,5.77781,0,0.000885,0,0
0:0:41.741,46.1592,5.87433,0,0.000885,0,0
0:0:42.348,47.4492,6.03981,0,0.000885,0,0
0:0:42.950,48.9749,6.23286,0,0.000885,0,0
0:0:43.547,50.2649,6.39833,0,0.000885,0,0
0:0:44.144,51.0834,6.50176,0,0.000885,0,0
0:0:44.744,52.5513,6.68791,0,0.000885,0,0
0:0:45.341,53.6633,6.8327,0,0.000885,0,0
0:0:45.941,54.8377,6.98439,0,0.000885,0,0
0:0:46.551,56.012,7.12918,0,0.000885,0,0
0:0:47.157,56.8928,7.24639,0,0.000885,0,0
0:0:47.756,57.8892,7.3705,0,0.000885,0,0
0:0:48.354,59.2948,7.54976,0,0.000885,0,0
0:0:48.952,60.8205,7.74281,0,0.000885,0,0
0:0:49.550,62.1683,7.91518,0,0.000885,0,0
0:0:50.146,63.5206,8.08755,0,0.000885,0,0
0:0:50.741,64.2234,8.17718,0,0.000885,0,0
0:0:51.347,65.2777,8.30818,0,0.000885,0,0
0:0:51.953,66.5676,8.47366,0,0.000885,0,0
0:0:52.559,67.564,8.60466,0,0.000885,0,0
0:0:53.157,69.032,8.79082,0,0.000885,0,0
0:0:53.753,69.6769,8.87355,0,0.000885,0,0
0:0:54.348,70.9091,9.02524,0,0.000885,0,0
0:0:54.945,72.3726,9.21829,0,0.000885,0,0
0:0:55.543,73.2533,9.32861,0,0.000885,0,0
0:0:56.143,75.0148,9.54924,0,0.000885,0,0
0:0:56.753,76.1891,9.70092,0,0.000885,0,0
0:0:57.359,77.359,9.85261,0,0.000885,0,0
0:0:57.957,77.8884,9.91466,0,0.000885,0,0
0:0:58.558,79.294,10.0939,0,0.000885,0,0
0:0:59.156,80.9398,10.3077,0,0.000885,0,0
0:0:59.755,81.8161,10.418,0,0.000885,0,0
0:1:0.348,83.2262,10.5972,0,0.000885,0,0
0:1:0.945,83.9869,10.6938,0,0.000885,0,0
0:1:1.553,85.5704,10.8937,0,0.000885,0,0
0:1:2.159,86.3934,10.9971,0,0.000885,0,0
0:1:2.765,87.3898,11.1281,0,0.000885,0,0
0:1:3.363,89.089,11.3419,0,0.000885,0,0
0:1:3.960,90.1477,11.4798,0,0.000885,0,0
0:1:4.554,91.024,11.5901,0,0.000885,0,0
0:1:5.153,92.1983,11.7418,0,0.000885,0,0
0:1:5.751,93.7819,11.9417,0,0.000885,0,0
0:1:6.349,95.014,12.1003,0,0.000885,0,0
0:1:6.959,96.0104,12.2244,0,0.000885,0,0
0:1:7.563,96.7132,12.314,0,0.000885,0,0
0:1:8.163,98.1811,12.5002,0,0.000885,0,0
0:1:8.761,99.2354,12.6381,0,0.000885,0,0
0:1:9.360,100.588,12.8036,0,0.000885,0,0
0:1:9.957,101.993,12.9828,0,0.000885,0,0
0:1:10.554,102.932,13.1069,0,0.000885,0,0
0:1:11.157,104.222,13.2724,0,0.000885,0,0
0:1:11.765,105.103,13.3827,0,0.000885,0,0
0:1:12.371,106.393,13.5482,0,0.000885,0,0
0:1:12.969,107.505,13.6861,0,0.000885,0,0
0:1:13.568,108.795,13.8516,0,0.000885,0,0
0:1:14.163,110.027,14.0101,0,0.000885,0,0
0:1:14.758,110.908,14.1205,0,0.000885,0,0
0:1:15.355,112.611,14.3411,0,0.000885,0,0
0:1:15.955,113.608,14.4652,0,0.000885,0,0
0:1:16.563,114.898,14.6307,0,0.000885,0,0
0:1:17.169,116.01,14.7686,0,0.000885,0,0
0:1:17.770,117.651,14.9823,0,0.000885,0,0
0:1:18.366,118.358,15.0719,0,0.000885,0,0
0:1:18.963,119.88,15.265,0,0.000885,0,0
0:1:19.560,120.409,15.3339,0,0.000885,0,0
0:1:20.158,121.347,15.4512,0,0.000885,0,0
0:1:20.758,123.167,15.6787,0,0.000885,0,0
0:1:21.356,123.927,15.7821,0,0.000885,0,0
0:1:21.965,125.453,15.9752,0,0.000885,0,0
0:1:22.572,127.095,16.182,0,0.000885,0,0
0:1:23.171,128.385,16.3475,0,0.000885,0,0
0:1:23.768,129.03,16.4302,0,0.000885,0,0
0:1:24.366,129.968,16.5474,0,0.000885,0,0
0:1:24.960,131.436,16.7336,0,0.000885,0,0
0:1:25.557,132.317,16.8439,0,0.000885,0,0
0:1:26.153,133.607,17.0094,0,0.000885,0,0
0:1:26.761,135.012,17.1886,0,0.000885,0,0
0:1:27.369,135.951,17.3127,0,0.000885,0,0
0:1:27.972,136.947,17.4368,0,0.000885,0,0
0:1:28.569,138.18,17.5954,0,0.000885,0,0
0:1:29.163,139.705,17.7885,0,0.000885,0,0
0:1:29.760,140.644,17.9057,0,0.000885,0,0
0:1:30.357,142.227,18.1056,0,0.000885,0,0
0:1:30.957,143.108,18.2228,0,0.000885,0,0
0:1:31.567,144.398,18.3883,0,0.000885,0,0
0:1:32.172,145.51,18.5262,0,0.000885,0,0
0:1:32.770,146.449,18.6434,0,0.000885,0,0
0:1:33.366,147.739,18.8089,0,0.000885,0,0
0:1:33.968,149.029,18.9744,0,0.000885,0,0
0:1:34.566,150.203,19.1261,0,0.000885,0,0
0:1:35.164,151.32,19.264,0,0.000885,0,0
0:1:35.760,152.552,19.4225,0,0.000885,0,0
0:1:36.361,153.197,19.5053,0,0.000885,0,0
0:1:36.969,154.896,19.719,0,0.000885,0,0
0:1:37.575,155.657,19.8224,0,0.000885,0,0
0:1:38.173,157.24,20.0224,0,0.000885,0,0
0:1:38.770,158.592,20.1947,0,0.000885,0,0
0:1:39.367,159.237,20.2775,0,0.000885,0,0
0:1:39.963,160.821,20.4774,0,0.000885,0,0
0:1:40.557,162.053,20.636,0,0.000885,0,0
0:1:41.156,163.165,20.7739,0,0.000885,0,0
0:1:41.766,164.864,20.9945,0,0.000885,0,0
0:1:42.370,165.63,21.0911,0,0.000885,0,0
0:1:42.973,166.626,21.2152,0,0.000885,0,0
0:1:43.568,167.271,21.2979,0,0.000885,0,0
0:1:44.164,168.797,21.491,0,0.000885,0,0
0:1:44.763,169.971,21.6426,0,0.000885,0,0
0:1:45.361,171.377,21.8219,0,0.000885,0,0
0:1:45.959,172.782,22.0012,0,0.000885,0,0
0:1:46.568,173.49,22.0908,0,0.000885,0,0
0:1:47.173,175.131,22.2976,0,0.000885,0,0
0:1:47.770,176.363,22.4562,0,0.000885,0,0
0:1:48.369,177.533,22.6079,0,0.000885,0,0
0:1:48.968,178.004,22.6631,0,0.000885,0,0
0:1:49.565,179.939,22.9113,0,0.000885,0,0
0:1:50.161,180.994,23.0423,0,0.000885,0,0
0:1:50.758,181.874,23.1595,0,0.000885,0,0
0:1:51.365,183.342,23.3456,0,0.000885,0,0
0:1:51.973,184.223,23.456,0,0.000885,0,0
0:1:52.576,185.744,23.649,0,0.000885,0,0
0:1:53.177,186.452,23.7386,0,0.000885,0,0
0:1:53.771,187.506,23.8765,0,0.000885,0,0
0:1:54.368,188.854,24.0489,0,0.000885,0,0
0:1:54.965,190.264,24.2282,0,0.000885,0,0
0:1:55.562,190.909,24.304,0,0.000885,0,0
0:1:56.161,192.372,24.4971,0,0.000885,0,0
0:1:56.767,193.724,24.6625,0,0.000885,0,0
0:1:57.367,194.837,24.8073,0,0.000885,0,0
0:1:57.964,196.362,25.0004,0,0.000885,0,0
0:1:58.555,196.829,25.0624,0,0.000885,0,0
0:1:59.148,198.182,25.2348,0,0.000885,0,0
0:1:59.743,199.12,25.352,0,0.000885,0,0
0:2:0.336,200.526,25.5313,0,0.000885,0,0
0:2:0.929,201.874,25.7037,0,0.000885,0,0
0:2:1.534,202.87,25.8278,0,0.000885,0,0
0:2:2.133,204.222,26.0001,0,0.000885,0,0
0:2:2.736,205.512,26.1656,0,0.000885,0,0
0:2:3.329,206.744,26.3242,0,0.000885,0,0
0:2:3.923,207.389,26.4069,0,0.000885,0,0
0:2:4.525,208.737,26.5793,0,0.000885,0,0
0:2:5.126,210.143,26.7586,0,0.000885,0,0
0:2:5.717,211.024,26.8689,0,0.000885,0,0
0:2:6.321,212.314,27.0343,0,0.000885,0,0
0:2:6.923,213.079,27.1309,0,0.000885,0,0
0:2:7.522,213.955,27.2412,0,0.000885,0,0
0:2:8.125,215.249,27.4067,0,0.000885,0,0
0:2:8.725,216.304,27.5377,0,0.000885,0,0
0:2:9.316,217.829,27.7376,0,0.000885,0,0
0:2:9.917,218.354,27.7997,0,0.000885,0,0
0:2:10.521,219.764,27.9789,0,0.000885,0,0
0:2:11.115,221.29,28.172,0,0.000885,0,0
0:2:11.719,222.696,28.3512,0,0.000885,0,0
0:2:12.319,223.519,28.4616,0,0.000885,0,0
0:2:12.922,224.689,28.6063,0,0.000885,0,0
0:2:13.517,225.396,28.696,0,0.000885,0,0
0:2:14.129,225.747,28.7442,0,0.000885,0,0
0:2:14.732,227.153,28.9235,0,0.000885,0,0
0:2:15.336,227.856,29.0131,0,0.000885,0,0
0:2:15.935,228.443,29.089,0,0.000885,0,0
0:2:16.538,228.914,29.1441,0,0.000885,0,0
0:2:17.139,229.324,29.1993,0,0.000885,0,0
0:2:17.740,230.147,29.3027,0,0.000885,0,0
0:2:18.342,231.437,29.4682,0,0.000885,0,0
0:2:18.933,233.194,29.6888,0,0.000885,0,0
0:2:19.532,234.484,29.8543,0,0.000885,0,0
0:2:20.127,235.894,30.0336,0,0.000885,0,0
0:2:20.722,236.539,30.1163,0,0.000885,0,0
0:2:21.314,236.067,30.0542,0,0.000885,0,0
0:2:21.916,235.186,29.9439,0,0.000885,0,0
0:2:22.516,233.371,29.7164,0,0.000885,0,0
0:2:23.129,231.085,29.4199,0,0.000885,0,0
0:2:23.731,228.852,29.1372,0,0.000885,0,0
0:2:24.332,224.337,28.565,0,0.000885,0,0
0:2:24.937,217.651,27.71,0,0.000885,0,0
0:2:25.527,207.389,26.4069,0,0.000885,0,0
0:2:26.121,199.12,25.352,0,0.000885,0,0
0:2:26.724,191.376,24.3661,0,0.000885,0,0
0:2:27.327,180.527,22.9871,0,0.000885,0,0
0:2:27.947,168.325,21.4289,0,0.000885,0,0

File: DataFile2021-06-08_074152.csv
Test ID:,Date Tested:,Time:,Test Type:,Diameter Avg. (mm):,Cyl. Corr. Factor:,Height (mm):,Age (days):,Weight (kN):,Break Type:,Ramp Rate (MPa/s):,Load at Break (kN):,Stress at Break (MPa):
12,6/8/2021,07:41,Cylinder,100,1,200,0,3.6,3,0.24,532.43,67.79
Sample Time,Load (kN),Stress (MPa),Long. Strain,Trans. Strain,Chan1 Deflection (mm),Chan2 Deflection (mm)
0:0:14.192,6.21861,0.792897,0,0.000885,0,0
0:0:15.381,12.7264,1.62027,0,0.000885,0,0
0:0:16.574,11.6143,1.47548,0,0.000885,0,0
0:0:17.764,12.1392,1.54443,0,0.000885,0,0
0:0:18.948,13.1356,1.67543,0,0.000885,0,0
0:0:20.154,15.8357,2.01327,0,0.000885,0,0
0:0:21.366,19.0606,2.42695,0,0.000885,0,0
0:0:22.558,22.0543,2.80617,0,0.000885,0,0
0:0:23.751,24.1049,3.06817,0,0.000885,0,0
0:0:24.957,26.5114,3.37843,0,0.000885,0,0
0:0:26.162,28.3886,3.61285,0,0.000885,0,0
0:0:27.357,30.9685,3.9438,0,0.000885,0,0
0:0:28.552,33.8421,4.30922,0,0.000885,0,0
0:0:29.759,35.7192,4.55054,0,0.000885,0,0
0:0:30.972,37.89,4.82633,0,0.000885,0,0
0:0:32.170,40.5277,5.15728,0,0.000885,0,0
0:0:33.360,42.6985,5.43307,0,0.000885,0,0
0:0:34.554,45.6299,5.81228,0,0.000885,0,0
0:0:35.768,47.6849,6.07428,0,0.000885,0,0
0:0:36.963,49.9713,6.36386,0,0.000885,0,0
0:0:38.159,52.4356,6.67413,0,0.000885,0,0
0:0:39.355,54.722,6.9706,0,0.000885,0,0
0:0:40.567,56.4791,7.19123,0,0.000885,0,0
0:0:41.767,59.8241,7.61871,0,0.000885,0,0
0:0:42.961,61.4077,7.81865,0,0.000885,0,0
0:0:44.150,63.6363,8.10134,0,0.000885,0,0
0:0:45.372,66.2741,8.43918,0,0.000885,0,0
0:0:46.574,68.6805,8.74255,0,0.000885,0,0
0:0:47.768,70.8513,9.01834,0,0.000885,0,0
0:0:48.964,73.8983,9.41134,0,0.000885,0,0
0:0:50.171,75.9534,9.67334,0,0.000885,0,0
0:0:51.374,78.3554,9.97671,0,0.000885,0,0
0:0:52.570,80.5262,10.2525,0,0.000885,0,0
0:0:53.765,83.0483,10.5766,0,0.000885,0,0
0:0:54.963,84.9254,10.811,0,0.000885,0,0
0:0:56.175,87.6833,11.1626,0,0.000885,0,0
0:0:57.373,89.734,11.4246,0,0.000885,0,0
0:0:58.564,92.0248,11.7142,0,0.000885,0,0
0:0:59.767,94.4847,12.0314,0,0.000885,0,0
0:1:0.979,96.8333,12.3278,0,0.000885,0,0
0:1:2.170,99.8225,12.707,0,0.000885,0,0
0:1:3.363,101.815,12.9621,0,0.000885,0,0
0:1:4.561,104.044,13.2448,0,0.000885,0,0
0:1:5.773,106.45,13.5551,0,0.000885,0,0
0:1:6.972,108.385,13.8033,0,0.000885,0,0
0:1:8.165,111.085,14.1411,0,0.000885,0,0
0:1:9.358,113.901,14.4997,0,0.000885,0,0
0:1:10.573,115.952,14.7617,0,0.000885,0,0
0:1:11.771,118.238,15.0513,0,0.000885,0,0
0:1:12.965,120.587,15.3546,0,0.000885,0,0
0:1:14.161,122.58,15.6097,0,0.000885,0,0
0:1:15.368,125.511,15.982,0,0.000885,0,0
0:1:16.574,128.153,16.3199,0,0.000885,0,0
0:1:17.767,129.91,16.5405,0,0.000885,0,0
0:1:18.959,132.49,16.8715,0,0.000885,0,0
0:1:20.167,134.777,17.1611,0,0.000885,0,0
0:1:21.373,137.068,17.4506,0,0.000885,0,0
0:1:22.566,139.412,17.7471,0,0.000885,0,0
0:1:23.762,140.937,17.9471,0,0.000885,0,0
0:1:24.959,143.869,18.3194,0,0.000885,0,0
0:1:26.170,146.511,18.6572,0,0.000885,0,0
0:1:27.366,148.62,18.9261,0,0.000885,0,0
0:1:28.555,150.906,19.2157,0,0.000885,0,0
0:1:29.764,153.779,19.5811,0,0.000885,0,0
0:1:30.972,155.95,19.8569,0,0.000885,0,0
0:1:32.164,157.885,20.1051,0,0.000885,0,0
0:1:33.361,160.879,20.4843,0,0.000885,0,0
0:1:34.566,162.992,20.7532,0,0.000885,0,0
0:1:35.780,165.514,21.0704,0,0.000885,0,0
0:1:36.974,167.035,21.2703,0,0.000885,0,0
0:1:38.168,169.971,21.6426,0,0.000885,0,0
0:1:39.359,172.551,21.9667,0,0.000885,0,0
0:1:40.571,174.953,22.277,0,0.000885,0,0
0:1:41.773,177.244,22.5665,0,0.000885,0,0
0:1:42.963,178.943,22.7803,0,0.000885,0,0
0:1:44.161,181.465,23.1043,0,0.000885,0,0
0:1:45.367,184.223,23.456,0,0.000885,0,0
0:1:46.570,186.625,23.7593,0,0.000885,0,0
0:1:47.765,188.618,24.0144,0,0.000885,0,0
0:1:48.959,191.669,24.4074,0,0.000885,0,0
0:1:50.164,193.547,24.6419,0,0.000885,0,0
0:1:51.355,195.539,24.897,0,0.000885,0,0
0:1:52.562,197.888,25.1934,0,0.000885,0,0
0:1:53.763,200.174,25.4899,0,0.000885,0,0
0:1:54.958,202.87,25.8278,0,0.000885,0,0
0:1:56.162,205.454,26.1587,0,0.000885,0,0
0:1:57.365,207.505,26.4207,0,0.000885,0,0
0:1:58.563,210.027,26.7448,0,0.000885,0,0
0:1:59.759,211.904,26.9792,0,0.000885,0,0
0:2:0.963,214.72,27.3377,0,0.000885,0,0
0:2:2.161,217.184,27.6549,0,0.000885,0,0
0:2:3.358,219.177,27.9031,0,0.000885,0,0
0:2:4.568,221.642,28.2202,0,0.000885,0,0
0:2:5.773,224.164,28.5443,0,0.000885,0,0
0:2:6.961,226.859,28.8821,0,0.000885,0,0
0:2:8.162,228.852,29.1372,0,0.000885,0,0
0:2:9.360,231.437,29.4682,0,0.000885,0,0
0:2:10.565,233.545,29.7371,0,0.000885,0,0
0:2:11.765,235.951,30.0405,0,0.000885,0,0
0:2:12.963,238.354,30.3507,0,0.000885,0,0
0:2:14.166,241.232,30.7161,0,0.000885,0,0
0:2:15.368,242.521,30.8816,0,0.000885,0,0
0:2:16.562,245.626,31.2746,0,0.000885,0,0
0:2:17.763,247.797,31.5504,0,0.000885,0,0
0:2:18.962,249.968,31.8262,0,0.000885,0,0
0:2:20.163,252.668,32.1709,0,0.000885,0,0
0:2:21.359,254.603,32.4191,0,0.000885,0,0
0:2:22.568,257.125,32.7363,0,0.000885,0,0
0:2:23.763,259.585,33.0535,0,0.000885,0,0
0:2:24.968,262.285,33.3982,0,0.000885,0,0
0:2:26.169,264.456,33.674,0,0.000885,0,0
0:2:27.362,266.569,33.9429,0,0.000885,0,0
0:2:28.567,268.855,34.2325,0,0.000885,0,0
0:2:29.766,271.026,34.5083,0,0.000885,0,0
0:2:30.970,273.663,34.8461,0,0.000885,0,0
0:2:32.161,275.656,35.1012,0,0.000885,0,0
0:2:33.366,278.299,35.4322,0,0.000885,0,0
0:2:34.568,280.758,35.7493,0,0.000885,0,0
0:2:35.771,283.338,36.0734,0,0.000885,0,0
0:2:36.965,285.216,36.3147,0,0.000885,0,0
0:2:38.169,288.089,36.6801,0,0.000885,0,0
0:2:39.366,289.851,36.9076,0,0.000885,0,0
0:2:40.571,292.724,37.2731,0,0.000885,0,0
0:2:41.768,294.837,37.542,0,0.000885,0,0
0:2:42.965,297.123,37.8315,0,0.000885,0,0
0:2:44.150,299.646,38.1487,0,0.000885,0,0
0:2:45.349,301.523,38.39,0,0.000885,0,0
0:2:46.568,303.925,38.7003,0,0.000885,0,0
0:2:47.764,305.98,38.9554,0,0.000885,0,0
0:2:48.965,308.796,39.3139,0,0.000885,0,0
0:2:50.171,311.433,39.6517,0,0.000885,0,0
0:2:51.372,313.368,39.9,0,0.000885,0,0
0:2:52.551,315.423,40.162,0,0.000885,0,0
0:2:53.769,317.358,40.4102,0,0.000885,0,0
0:2:54.969,319.938,40.7342,0,0.000885,0,0
0:2:56.159,322.518,41.0652,0,0.000885,0,0
0:2:57.366,323.457,41.1824,0,0.000885,0,0
0:2:58.564,325.743,41.472,0,0.000885,0,0
0:2:59.772,330.263,42.0511,0,0.000885,0,0
0:3:0.974,333.074,42.4097,0,0.000885,0,0
0:3:2.163,336.419,42.8371,0,0.000885,0,0
0:3:3.363,339.057,43.1681,0,0.000885,0,0
0:3:4.569,341.579,43.4921,0,0.000885,0,0
0:3:5.774,342.989,43.6714,0,0.000885,0,0
0:3:6.962,344.746,43.892,0,0.000885,0,0
0:3:8.158,346.859,44.1609,0,0.000885,0,0
0:3:9.368,349.559,44.5057,0,0.000885,0,0
0:3:10.571,351.668,44.7746,0,0.000885,0,0
0:3:11.769,353.487,45.009,0,0.000885,0,0
0:3:12.965,355.831,45.3055,0,0.000885,0,0
0:3:14.156,358.238,45.6088,0,0.000885,0,0
0:3:15.365,360.76,45.9329,0,0.000885,0,0
0:3:16.556,363.282,46.2569,0,0.000885,0,0
0:3:17.771,365.568,46.5465,0,0.000885,0,0
0:3:18.958,367.681,46.8154,0,0.000885,0,0
0:3:20.169,370.497,47.1739,0,0.000885,0,0
0:3:21.364,372.841,47.4704,0,0.000885,0,0
0:3:22.558,375.185,47.7669,0,0.000885,0,0
0:3:23.767,377.65,48.084,0,0.000885,0,0
0:3:24.966,379.705,48.346,0,0.000885,0,0
0:3:26.170,382.636,48.7184,0,0.000885,0,0
0:3:27.366,384.22,48.9183,0,0.000885,0,0
0:3:28.569,386.742,49.2424,0,0.000885,0,0
0:3:29.767,388.855,49.5113,0,0.000885,0,0
0:3:30.965,391.844,49.8905,0,0.000885,0,0
0:3:32.166,393.899,50.1525,0,0.000885,0,0
0:3:33.363,396.359,50.4627,0,0.000885,0,0
0:3:34.570,398.53,50.7454,0,0.000885,0,0
0:3:35.774,400.407,50.9798,0,0.000885,0,0
0:3:36.962,402.987,51.3108,0,0.000885,0,0
0:3:38.169,405.802,51.6693,0,0.000885,0,0
0:3:39.360,407.973,51.9451,0,0.000885,0,0
0:3:40.567,410.259,52.2347,0,0.000885,0,0
0:3:41.768,412.488,52.5174,0,0.000885,0,0
0:3:42.972,414.895,52.8276,0,0.000885,0,0
0:3:44.169,417.359,53.1379,0,0.000885,0,0
0:3:45.367,419.467,53.4068,0,0.000885,0,0
0:3:46.572,422.167,53.7515,0,0.000885,0,0
0:3:47.771,424.102,53.9997,0,0.000885,0,0
0:3:48.951,426.86,54.3514,0,0.000885,0,0
0:3:50.157,429.556,54.6961,0,0.000885,0,0
0:3:51.371,431.962,54.9995,0,0.000885,0,0
0:3:52.574,433.897,55.2477,0,0.000885,0,0
0:3:53.771,436.299,55.5511,0,0.000885,0,0
0:3:54.979,438.354,55.8131,0,0.000885,0,0
0:3:56.175,440.756,56.1164,0,0.000885,0,0
0:3:57.361,443.514,56.4681,0,0.000885,0,0
0:3:58.560,445.801,56.7645,0,0.000885,0,0
0:3:59.770,448.092,57.0541,0,0.000885,0,0
0:4:0.973,450.436,57.3506,0,0.000885,0,0
0:4:2.174,452.549,57.6195,0,0.000885,0,0
0:4:3.372,455.129,57.9504,0,0.000885,0,0
0:4:4.571,457.415,58.24,0,0.000885,0,0
0:4:5.777,459.937,58.5641,0,0.000885,0,0
0:4:6.975,461.872,58.8054,0,0.000885,0,0
0:4:8.170,464.51,59.1432,0,0.000885,0,0
0:4:9.373,466.859,59.4397,0,0.000885,0,0
0:4:10.576,469.203,59.7431,0,0.000885,0,0
0:4:11.774,471.374,60.0189,0,0.000885,0,0
0:4:12.970,473.954,60.3429,0,0.000885,0,0
0:4:14.165,476.534,60.6739,0,0.000885,0,0
0:4:15.384,478.411,60.9152,0,0.000885,0,0
0:4:16.579,480.933,61.2323,0,0.000885,0,0
0:4:17.765,483.513,61.5633,0,0.000885,0,0
0:4:18.971,485.684,61.8391,0,0.000885,0,0
0:4:20.179,488.09,62.1424,0,0.000885,0,0
0:4:21.374,490.786,62.4872,0,0.000885,0,0
0:4:22.577,493.134,62.7906,0,0.000885,0,0
0:4:23.771,495.069,63.0319,0,0.000885,0,0
0:4:24.966,497.649,63.3628,0,0.000885,0,0
0:4:26.174,499.469,63.5972,0,0.000885,0,0
0:4:27.365,502.106,63.9282,0,0.000885,0,0
0:4:28.563,504.806,64.2729,0,0.000885,0,0
0:4:29.772,506.915,64.5418,0,0.000885,0,0
0:4:30.975,509.028,64.8107,0,0.000885,0,0
0:4:32.174,511.55,65.1348,0,0.000885,0,0
0:4:33.377,514.308,65.4864,0,0.000885,0,0
0:4:34.579,516.536,65.7691,0,0.000885,0,0
0:4:35.784,518.178,65.9759,0,0.000885,0,0
0:4:36.976,520.758,66.3069,0,0.000885,0,0
0:4:38.177,523.689,66.6792,0,0.000885,0,0
0:4:39.375,525.451,66.8998,0,0.000885,0,0
0:4:40.579,528.266,67.2584,0,0.000885,0,0
0:4:41.775,530.375,67.5273,0,0.000885,0,0
0:4:42.970,529.321,67.3963,0,0.000885,0,0
0:4:44.161,528.854,67.3342,0,0.000885,0,0
0:4:45.367,530.375,67.5273,0,0.000885,0,0
0:4:46.569,530.201,67.5066,0,0.000885,0,0
0:4:47.771,532.194,67.7617,0,0.000885,0,0
0:4:48.974,528.56,67.2997,0,0.000885,0,0
0:4:50.180,530.962,67.6031,0,0.000885,0,0
0:4:51.370,528.911,67.3411,0,0.000885,0,0
0:4:52.574,529.614,67.4307,0,0.000885,0,0
0:4:53.766,531.02,67.61,0,0.000885,0,0
0:4:54.975,531.082,67.6169,0,0.000885,0,0
0:4:56.174,515.949,65.6932,0,0.000885,0,0
0:4:56.271,515.949,65.6932,0,0.000885,0,0