Folder: Experiment-Files (part 43)

File: DataFile2021-06-24_055029.csv
Test ID:,Date Tested:,Time:,Test Type:,Diameter Avg. (mm):,Cyl. Corr. Factor:,Height (mm):,Age (days):,Weight (kN):,Break Type:,Ramp Rate (MPa/s):,Load at Break (kN):,Stress at Break (MPa):
12,6/24/2021,05:50,Cylinder,150,1,300,0,3.6,3,0.22,582.28,32.95
Sample Time,Load (kN),Stress (MPa),Long. Strain,Trans. Strain,Chan1 Deflection (mm),Chan2 Deflection (mm)
0:0:18.093,6.97926,0.393001,0,0.000885,0,0
0:0:18.783,11.1428,0.627423,0,0.000885,0,0
0:0:19.481,11.4942,0.648107,0,0.000885,0,0
0:0:20.197,13.9585,0.792897,0,0.000885,0,0
0:0:20.887,16.8899,0.958371,0,0.000885,0,0
0:0:21.587,19.59,1.11006,0,0.000885,0,0
0:0:22.282,22.9929,1.30311,0,0.000885,0,0
0:0:23.000,25.9821,1.46858,0,0.000885,0,0
0:0:23.700,29.5584,1.67543,0,0.000885,0,0
0:0:24.412,33.6641,1.90295,0,0.000885,0,0
0:0:25.117,37.1827,2.1029,0,0.000885,0,0
0:0:25.817,40.292,2.28216,0,0.000885,0,0
0:0:26.508,43.1077,2.44074,0,0.000885,0,0
0:0:27.208,45.3363,2.56485,0,0.000885,0,0
0:0:27.905,48.5612,2.75101,0,0.000885,0,0
0:0:28.610,51.0834,2.8889,0,0.000885,0,0
0:0:29.317,54.5441,3.08885,0,0.000885,0,0
0:0:30.018,58.4763,3.30948,0,0.000885,0,0
0:0:30.717,60.9362,3.44738,0,0.000885,0,0
0:0:31.415,65.0419,3.6818,0,0.000885,0,0
0:0:32.110,67.3327,3.8128,0,0.000885,0,0
0:0:32.810,69.9127,3.95759,0,0.000885,0,0
0:0:33.511,72.7863,4.11617,0,0.000885,0,0
0:0:34.220,76.5405,4.32991,0,0.000885,0,0
0:0:34.925,79.1783,4.48159,0,0.000885,0,0
0:0:35.619,83.3419,4.71601,0,0.000885,0,0
0:0:36.319,85.7484,4.85391,0,0.000885,0,0
0:0:37.016,89.089,5.04007,0,0.000885,0,0
0:0:37.711,92.4919,5.23312,0,0.000885,0,0
0:0:38.409,94.8361,5.36412,0,0.000885,0,0
0:0:39.120,97.594,5.5227,0,0.000885,0,0
0:0:39.826,101.758,5.75712,0,0.000885,0,0
0:0:40.525,104.4,5.90881,0,0.000885,0,0
0:0:41.218,107.625,6.08807,0,0.000885,0,0
0:0:41.919,110.147,6.23286,0,0.000885,0,0
0:0:42.615,113.545,6.42591,0,0.000885,0,0
0:0:43.310,115.836,6.55691,0,0.000885,0,0
0:0:44.019,119.764,6.77755,0,0.000885,0,0
0:0:44.726,123.167,6.9706,0,0.000885,0,0
0:0:45.426,125.747,7.11539,0,0.000885,0,0
0:0:46.125,128.736,7.28776,0,0.000885,0,0
0:0:46.819,132.139,7.48081,0,0.000885,0,0
0:0:47.519,135.248,7.65318,0,0.000885,0,0
0:0:48.217,138.767,7.85313,0,0.000885,0,0
0:0:48.919,141.467,8.00481,0,0.000885,0,0
0:0:49.627,144.105,8.1565,0,0.000885,0,0
0:0:50.331,147.33,8.33576,0,0.000885,0,0
0:0:51.026,151.2,8.55639,0,0.000885,0,0
0:0:51.726,153.606,8.69429,0,0.000885,0,0
0:0:52.420,156.715,8.86666,0,0.000885,0,0
0:0:53.116,160.114,9.05971,0,0.000885,0,0
0:0:53.824,162.872,9.21829,0,0.000885,0,0
0:0:54.532,165.63,9.36998,0,0.000885,0,0
0:0:55.232,169.442,9.59061,0,0.000885,0,0
0:0:55.930,172.257,9.74919,0,0.000885,0,0
0:0:56.623,175.367,9.92156,0,0.000885,0,0
0:0:57.322,178.707,10.1146,0,0.000885,0,0
0:0:58.019,181.701,10.2801,0,0.000885,0,0
0:0:58.720,184.223,10.4249,0,0.000885,0,0
0:0:59.430,187.973,10.6386,0,0.000885,0,0
0:1:0.132,191.082,10.811,0,0.000885,0,0
0:1:0.827,194.307,10.9971,0,0.000885,0,0
0:1:1.521,196.656,11.1281,0,0.000885,0,0
0:1:2.210,200.117,11.3212,0,0.000885,0,0
0:1:2.903,203.226,11.5005,0,0.000885,0,0
0:1:3.606,206.86,11.7073,0,0.000885,0,0
0:1:4.313,209.267,11.8452,0,0.000885,0,0
0:1:5.013,212.314,12.0176,0,0.000885,0,0
0:1:5.708,215.014,12.1692,0,0.000885,0,0
0:1:6.404,218.474,12.3623,0,0.000885,0,0
0:1:7.100,221.521,12.5347,0,0.000885,0,0
0:1:7.790,224.337,12.6932,0,0.000885,0,0
0:1:8.489,227.976,12.9001,0,0.000885,0,0
0:1:9.192,231.316,13.0931,0,0.000885,0,0
0:1:9.889,234.604,13.2724,0,0.000885,0,0
0:1:10.589,237.241,13.4241,0,0.000885,0,0
0:1:11.281,239.47,13.5482,0,0.000885,0,0
0:1:11.972,242.873,13.7413,0,0.000885,0,0
0:1:12.662,245.804,13.9067,0,0.000885,0,0
0:1:13.357,248.971,14.086,0,0.000885,0,0
0:1:14.062,252.726,14.2997,0,0.000885,0,0
0:1:14.763,255.128,14.4376,0,0.000885,0,0
0:1:15.459,258.357,14.6169,0,0.000885,0,0
0:1:16.147,261.462,14.7961,0,0.000885,0,0
0:1:16.842,264.807,14.9823,0,0.000885,0,0
0:1:17.534,267.738,15.1478,0,0.000885,0,0
0:1:18.223,271.026,15.3339,0,0.000885,0,0
0:1:18.926,273.663,15.4856,0,0.000885,0,0
0:1:19.629,276.888,15.6718,0,0.000885,0,0
0:1:20.323,279.94,15.8442,0,0.000885,0,0
0:1:21.019,283.338,16.0372,0,0.000885,0,0
0:1:21.709,285.803,16.1751,0,0.000885,0,0
0:1:22.400,288.796,16.3406,0,0.000885,0,0
0:1:23.096,292.608,16.5612,0,0.000885,0,0
0:1:23.803,295.949,16.7474,0,0.000885,0,0
0:1:24.503,298.529,16.8922,0,0.000885,0,0
0:1:25.197,300.993,17.0301,0,0.000885,0,0
0:1:25.907,304.338,17.2231,0,0.000885,0,0
0:1:26.608,308.151,17.4368,0,0.000885,0,0
0:1:27.303,311.14,17.6092,0,0.000885,0,0
0:1:28.002,313.955,17.7678,0,0.000885,0,0
0:1:28.704,317.18,17.9471,0,0.000885,0,0
0:1:29.405,320.583,18.1401,0,0.000885,0,0
0:1:30.100,322.87,18.2711,0,0.000885,0,0
0:1:30.794,326.918,18.4986,0,0.000885,0,0
0:1:31.486,329.849,18.6641,0,0.000885,0,0
0:1:32.184,332.255,18.802,0,0.000885,0,0
0:1:32.881,335.365,18.9744,0,0.000885,0,0
0:1:33.593,338.354,19.1467,0,0.000885,0,0
0:1:34.298,341.405,19.3191,0,0.000885,0,0
0:1:35.002,345.04,19.526,0,0.000885,0,0
0:1:35.702,348.091,19.6983,0,0.000885,0,0
0:1:36.405,351.258,19.8776,0,0.000885,0,0
0:1:37.097,353.838,20.0224,0,0.000885,0,0
0:1:37.786,357.005,20.2016,0,0.000885,0,0
0:1:38.489,359.937,20.3671,0,0.000885,0,0
0:1:39.195,363.455,20.5671,0,0.000885,0,0
0:1:39.896,366.565,20.7463,0,0.000885,0,0
0:1:40.604,369.732,20.9256,0,0.000885,0,0
0:1:41.305,372.663,21.0911,0,0.000885,0,0
0:1:42.004,375.185,21.229,0,0.000885,0,0
0:1:42.697,379.233,21.4634,0,0.000885,0,0
0:1:43.391,382.107,21.622,0,0.000885,0,0
0:1:44.095,385.394,21.8081,0,0.000885,0,0
0:1:44.796,388.499,21.9874,0,0.000885,0,0
0:1:45.506,391.199,22.1391,0,0.000885,0,0
0:1:46.199,393.837,22.2839,0,0.000885,0,0
0:1:46.894,397.711,22.5045,0,0.000885,0,0
0:1:47.604,400.758,22.6769,0,0.000885,0,0
0:1:48.296,403.516,22.8354,0,0.000885,0,0
0:1:49.003,406.447,23.0009,0,0.000885,0,0
0:1:49.704,409.499,23.1733,0,0.000885,0,0
0:1:50.397,413.253,23.387,0,0.000885,0,0
0:1:51.098,416.127,23.5456,0,0.000885,0,0
0:1:51.799,418.942,23.7042,0,0.000885,0,0
0:1:52.493,422.047,23.8834,0,0.000885,0,0
0:1:53.204,425.277,24.0627,0,0.000885,0,0
0:1:53.907,427.914,24.2144,0,0.000885,0,0
0:1:54.608,431.491,24.4143,0,0.000885,0,0
0:1:55.304,435.245,24.6281,0,0.000885,0,0
0:1:55.995,437.945,24.7798,0,0.000885,0,0
0:1:56.688,440.525,24.9314,0,0.000885,0,0
0:1:57.377,443.986,25.1245,0,0.000885,0,0
0:1:58.071,446.388,25.2624,0,0.000885,0,0
0:1:58.776,449.497,25.4348,0,0.000885,0,0
0:1:59.479,453.016,25.6347,0,0.000885,0,0
0:2:0.174,455.889,25.8002,0,0.000885,0,0
0:2:0.865,458.941,25.9726,0,0.000885,0,0
0:2:1.556,461.872,26.138,0,0.000885,0,0
0:2:2.251,465.391,26.338,0,0.000885,0,0
0:2:2.942,468.678,26.5241,0,0.000885,0,0
0:2:3.643,471.138,26.662,0,0.000885,0,0
0:2:4.346,474.599,26.8551,0,0.000885,0,0
0:2:5.042,477.65,27.0274,0,0.000885,0,0
0:2:5.737,480.702,27.1998,0,0.000885,0,0
0:2:6.430,483.575,27.3653,0,0.000885,0,0
0:2:7.120,486.68,27.5377,0,0.000885,0,0
0:2:7.815,489.847,27.7169,0,0.000885,0,0
0:2:8.510,493.134,27.9031,0,0.000885,0,0
0:2:9.214,495.83,28.0617,0,0.000885,0,0
0:2:9.914,498.881,28.234,0,0.000885,0,0
0:2:10.605,502.049,28.4133,0,0.000885,0,0
0:2:11.294,505.509,28.6063,0,0.000885,0,0
0:2:11.999,508.031,28.7511,0,0.000885,0,0
0:2:12.710,511.021,28.9166,0,0.000885,0,0
0:2:13.412,514.659,29.1235,0,0.000885,0,0
0:2:14.114,517.003,29.2545,0,0.000885,0,0
0:2:14.808,520.228,29.4406,0,0.000885,0,0
0:2:15.499,523.631,29.6337,0,0.000885,0,0
0:2:16.192,526.741,29.806,0,0.000885,0,0
0:2:16.892,529.378,29.9577,0,0.000885,0,0
0:2:17.587,532.546,30.137,0,0.000885,0,0
0:2:18.290,535.01,30.2749,0,0.000885,0,0
0:2:18.993,538.706,30.4817,0,0.000885,0,0
0:2:19.695,541.166,30.6265,0,0.000885,0,0
0:2:20.388,544.453,30.8127,0,0.000885,0,0
0:2:21.086,546.798,30.9437,0,0.000885,0,0
0:2:21.792,550.846,31.1712,0,0.000885,0,0
0:2:22.481,553.835,31.3436,0,0.000885,0,0
0:2:23.174,556.886,31.5159,0,0.000885,0,0
0:2:23.879,559.351,31.6538,0,0.000885,0,0
0:2:24.582,562.398,31.8262,0,0.000885,0,0
0:2:25.278,565.743,32.0124,0,0.000885,0,0
0:2:25.969,567.856,32.1365,0,0.000885,0,0
0:2:26.660,571.374,32.3364,0,0.000885,0,0
0:2:27.355,572.958,32.426,0,0.000885,0,0
0:2:28.044,575.36,32.557,0,0.000885,0,0
0:2:28.747,577.473,32.6811,0,0.000885,0,0
0:2:29.451,580.582,32.8535,0,0.000885,0,0
0:2:30.146,582.281,32.95,0,0.000885,0,0
0:2:30.839,580.64,32.8604,0,0.000885,0,0
0:2:31.528,573.425,32.4467,0,0.000885,0,0
0:2:32.218,563.22,31.8745,0,0.000885,0,0
0:2:32.910,556.944,31.5159,0,0.000885,0,0
0:2:33.613,544.04,30.7851,0,0.000885,0,0
0:2:34.313,537.474,30.4128,0,0.000885,0,0
0:2:35.007,526.741,29.806,0,0.000885,0,0
0:2:35.712,523.338,29.613,0,0.000885,0,0
0:2:36.415,522.399,29.5647,0,0.000885,0,0
0:2:37.113,521.109,29.4889,0,0.000885,0,0
0:2:37.812,522.457,29.5647,0,0.000885,0,0
0:2:38.516,525.273,29.7233,0,0.000885,0,0
0:2:39.215,523.747,29.6406,0,0.000885,0,0
0:2:39.909,526.914,29.8198,0,0.000885,0,0
0:2:40.610,530.437,30.0198,0,0.000885,0,0
0:2:41.308,532.546,30.137,0,0.000885,0,0
0:2:41.997,519.526,29.3992,0,0.000885,0,0
0:2:42.697,520.816,29.4751,0,0.000885,0,0
0:2:43.395,523.044,29.5992,0,0.000885,0,0
0:2:44.098,524.218,29.6612,0,0.000885,0,0
0:2:44.792,526.683,29.806,0,0.000885,0,0
0:2:45.503,529.205,29.9439,0,0.000885,0,0
0:2:46.204,531.607,30.0818,0,0.000885,0,0
0:2:46.899,534.658,30.2542,0,0.000885,0,0
0:2:47.602,534.013,30.2197,0,0.000885,0,0
0:2:48.303,534.481,30.2473,0,0.000885,0,0
0:2:49.009,537.123,30.3921,0,0.000885,0,0
0:2:49.706,538.706,30.4817,0,0.000885,0,0
0:2:50.396,540.521,30.5851,0,0.000885,0,0
0:2:51.085,543.573,30.7575,0,0.000885,0,0
0:2:51.776,545.628,30.8747,0,0.000885,0,0
0:2:52.465,547.794,30.9988,0,0.000885,0,0
0:2:53.155,549.729,31.1091,0,0.000885,0,0
0:2:53.858,552.136,31.247,0,0.000885,0,0
0:2:54.558,551.197,31.1919,0,0.000885,0,0
0:2:55.251,551.433,31.2057,0,0.000885,0,0
0:2:55.939,553.368,31.316,0,0.000885,0,0
0:2:56.629,555.948,31.4608,0,0.000885,0,0
0:2:57.322,558.999,31.6331,0,0.000885,0,0
0:2:58.011,561.108,31.7504,0,0.000885,0,0
0:2:58.711,562.46,31.8262,0,0.000885,0,0
0:2:59.411,563.692,31.8951,0,0.000885,0,0
0:3:0.114,556.299,31.4815,0,0.000885,0,0
0:3:0.816,551.433,31.2057,0,0.000885,0,0
0:3:1.515,549.907,31.116,0,0.000885,0,0
0:3:2.213,542.341,30.6886,0,0.000885,0,0
0:3:2.343,542.341,30.6886,0,0.000885,0,0

File: DataFile2021-06-24_060132.csv
Test ID:,Date Tested:,Time:,Test Type:,Diameter Avg. (mm):,Cyl. Corr. Factor:,Height (mm):,Age (days):,Weight (kN):,Break Type:,Ramp Rate (MPa/s):,Load at Break (kN):,Stress at Break (MPa):
12,6/24/2021,06:01,Cylinder,150,1,300,0,3.6,3,0.21,608.34,34.43
Sample Time,Load (kN),Stress (MPa),Long. Strain,Trans. Strain,Chan1 Deflection (mm),Chan2 Deflection (mm)
0:0:19.581,7.86001,0.448159,0,0.000885,0,0
0:0:20.274,19.7634,1.11695,0,0.000885,0,0
0:0:20.988,18.4735,1.048,0,0.000885,0,0
0:0:21.684,18.1799,1.02732,0,0.000885,0,0
0:0:22.388,17.8863,1.01353,0,0.000885,0,0
0:0:23.088,19.2386,1.08937,0,0.000885,0,0
0:0:23.786,21.7607,1.23416,0,0.000885,0,0
0:0:24.478,25.9821,1.46858,0,0.000885,0,0
0:0:25.186,30.3235,1.71679,0,0.000885,0,0
0:0:25.894,33.9577,1.92364,0,0.000885,0,0
0:0:26.594,37.1827,2.1029,0,0.000885,0,0
0:0:27.292,39.2956,2.22701,0,0.000885,0,0
0:0:27.990,41.9334,2.3718,0,0.000885,0,0
0:0:28.682,45.572,2.57864,0,0.000885,0,0
0:0:29.382,48.152,2.72343,0,0.000885,0,0
0:0:30.078,51.5549,2.91648,0,0.000885,0,0
0:0:30.790,55.1313,3.11643,0,0.000885,0,0
0:0:31.497,58.5341,3.30948,0,0.000885,0,0
0:0:32.191,61.1141,3.46117,0,0.000885,0,0
0:0:32.888,64.2234,3.63354,0,0.000885,0,0
0:0:33.588,67.4484,3.8197,0,0.000885,0,0
0:0:34.277,70.3798,3.98517,0,0.000885,0,0
0:0:34.976,73.3734,4.15064,0,0.000885,0,0
0:0:35.689,76.6562,4.3368,0,0.000885,0,0
0:0:36.394,80.0013,4.52986,0,0.000885,0,0
0:0:37.094,82.1675,4.64707,0,0.000885,0,0
0:0:37.791,85.6283,4.84701,0,0.000885,0,0
0:0:38.484,88.5641,5.01249,0,0.000885,0,0
0:0:39.193,91.669,5.18486,0,0.000885,0,0
0:0:39.891,95.1919,5.38481,0,0.000885,0,0
0:0:40.600,97.8876,5.53649,0,0.000885,0,0
0:0:41.306,101.348,5.73644,0,0.000885,0,0
0:0:42.002,104.925,5.93639,0,0.000885,0,0
0:0:42.697,107.447,6.08118,0,0.000885,0,0
0:0:43.397,110.378,6.24665,0,0.000885,0,0
0:0:44.091,113.194,6.40523,0,0.000885,0,0
0:0:44.788,116.423,6.59139,0,0.000885,0,0
0:0:45.498,120.058,6.79134,0,0.000885,0,0
0:0:46.204,123.225,6.9706,0,0.000885,0,0
0:0:46.904,126.04,7.12918,0,0.000885,0,0
0:0:47.600,129.15,7.30844,0,0.000885,0,0
0:0:48.296,131.965,7.46702,0,0.000885,0,0
0:0:48.994,135.133,7.64629,0,0.000885,0,0
0:0:49.690,138.531,7.83934,0,0.000885,0,0
0:0:50.394,141.405,8.00481,0,0.000885,0,0
0:0:51.103,144.634,8.18408,0,0.000885,0,0
0:0:51.802,147.565,8.34955,0,0.000885,0,0
0:0:52.500,150.555,8.52192,0,0.000885,0,0
0:0:53.199,154.251,8.72876,0,0.000885,0,0
0:0:53.893,156.947,8.88045,0,0.000885,0,0
0:0:54.591,159.589,9.03213,0,0.000885,0,0
0:0:55.290,162.814,9.2114,0,0.000885,0,0
0:0:56.002,165.981,9.39066,0,0.000885,0,0
0:0:56.708,169.148,9.56992,0,0.000885,0,0
0:0:57.403,172.845,9.78366,0,0.000885,0,0
0:0:58.099,175.892,9.95603,0,0.000885,0,0
0:0:58.798,178.885,10.1215,0,0.000885,0,0
0:0:59.492,181.701,10.2801,0,0.000885,0,0
0:1:0.198,184.223,10.4249,0,0.000885,0,0
0:1:0.906,188.444,10.6662,0,0.000885,0,0
0:1:1.607,191.376,10.8317,0,0.000885,0,0
0:1:2.302,194.014,10.9765,0,0.000885,0,0
0:1:2.994,197.065,11.1488,0,0.000885,0,0
0:1:3.680,199.996,11.3143,0,0.000885,0,0
0:1:4.375,203.457,11.5142,0,0.000885,0,0
0:1:5.069,205.922,11.6521,0,0.000885,0,0
0:1:5.776,209.618,11.859,0,0.000885,0,0
0:1:6.477,212.901,12.0451,0,0.000885,0,0
0:1:7.176,215.774,12.2106,0,0.000885,0,0
0:1:7.888,218.768,12.383,0,0.000885,0,0
0:1:8.593,221.584,12.5416,0,0.000885,0,0
0:1:9.279,224.515,12.707,0,0.000885,0,0
0:1:9.982,227.798,12.8932,0,0.000885,0,0
0:1:10.689,231.023,13.0725,0,0.000885,0,0
0:1:11.392,233.839,13.231,0,0.000885,0,0
0:1:12.087,237.184,13.4241,0,0.000885,0,0
0:1:12.789,240.524,13.6103,0,0.000885,0,0
0:1:13.487,243.754,13.7964,0,0.000885,0,0
0:1:14.180,246.685,13.9619,0,0.000885,0,0
0:1:14.881,250.026,14.148,0,0.000885,0,0
0:1:15.590,252.899,14.3135,0,0.000885,0,0
0:1:16.291,255.599,14.4652,0,0.000885,0,0
0:1:16.990,258.651,14.6376,0,0.000885,0,0
0:1:17.692,262.049,14.8306,0,0.000885,0,0
0:1:18.396,264.807,14.9823,0,0.000885,0,0
0:1:19.094,268.504,15.196,0,0.000885,0,0
0:1:19.784,271.377,15.3546,0,0.000885,0,0
0:1:20.491,274.424,15.527,0,0.000885,0,0
0:1:21.192,277.654,15.7132,0,0.000885,0,0
0:1:21.888,280.407,15.8648,0,0.000885,0,0
0:1:22.589,283.752,16.0579,0,0.000885,0,0
0:1:23.290,286.741,16.2234,0,0.000885,0,0
0:1:23.992,289.557,16.3888,0,0.000885,0,0
0:1:24.692,292.431,16.5474,0,0.000885,0,0
0:1:25.394,296.069,16.7543,0,0.000885,0,0
0:1:26.093,299.53,16.9473,0,0.000885,0,0
0:1:26.789,302.341,17.1059,0,0.000885,0,0
0:1:27.492,305.864,17.3058,0,0.000885,0,0
0:1:28.193,308.151,17.4368,0,0.000885,0,0
0:1:28.891,311.198,17.6092,0,0.000885,0,0
0:1:29.596,314.952,17.8229,0,0.000885,0,0
0:1:30.290,317.71,17.9815,0,0.000885,0,0
0:1:30.994,320.29,18.1263,0,0.000885,0,0
0:1:31.695,323.75,18.3194,0,0.000885,0,0
0:1:32.393,327.153,18.5124,0,0.000885,0,0
0:1:33.086,329.733,18.6572,0,0.000885,0,0
0:1:33.788,333.252,18.8572,0,0.000885,0,0
0:1:34.488,336.068,19.0157,0,0.000885,0,0
0:1:35.181,338.941,19.1812,0,0.000885,0,0
0:1:35.884,342.05,19.3536,0,0.000885,0,0
0:1:36.585,345.04,19.526,0,0.000885,0,0
0:1:37.278,348.443,19.719,0,0.000885,0,0
0:1:37.996,351.903,19.9121,0,0.000885,0,0
0:1:38.691,355.306,20.1051,0,0.000885,0,0
0:1:39.379,357.886,20.2499,0,0.000885,0,0
0:1:40.091,360.408,20.3947,0,0.000885,0,0
0:1:40.793,363.633,20.5809,0,0.000885,0,0
0:1:41.490,367.503,20.7946,0,0.000885,0,0
0:1:42.192,370.906,20.9876,0,0.000885,0,0
0:1:42.894,373.37,21.1255,0,0.000885,0,0
0:1:43.581,376.008,21.2772,0,0.000885,0,0
0:1:44.284,378.94,21.4427,0,0.000885,0,0
0:1:44.979,382.107,21.622,0,0.000885,0,0
0:1:45.681,385.745,21.8288,0,0.000885,0,0
0:1:46.382,389.264,22.0287,0,0.000885,0,0
0:1:47.092,392.08,22.1873,0,0.000885,0,0
0:1:47.782,394.953,22.3528,0,0.000885,0,0
0:1:48.474,397.769,22.5114,0,0.000885,0,0
0:1:49.173,400.522,22.6631,0,0.000885,0,0
0:1:49.879,404.397,22.8837,0,0.000885,0,0
0:1:50.580,407.564,23.063,0,0.000885,0,0
0:1:51.281,410.789,23.2491,0,0.000885,0,0
0:1:51.984,413.369,23.3939,0,0.000885,0,0
0:1:52.682,416.42,23.5663,0,0.000885,0,0
0:1:53.379,419.174,23.718,0,0.000885,0,0
0:1:54.079,423.222,23.9524,0,0.000885,0,0
0:1:54.788,425.566,24.0834,0,0.000885,0,0
0:1:55.496,428.795,24.2627,0,0.000885,0,0
0:1:56.194,431.491,24.4143,0,0.000885,0,0
0:1:56.886,434.894,24.6074,0,0.000885,0,0
0:1:57.592,438.59,24.8211,0,0.000885,0,0
0:1:58.298,441.637,24.9935,0,0.000885,0,0
0:1:58.993,444.395,25.1452,0,0.000885,0,0
0:1:59.694,447.736,25.3382,0,0.000885,0,0
0:2:0.393,450.787,25.5106,0,0.000885,0,0
0:2:1.096,453.661,25.6692,0,0.000885,0,0
0:2:1.793,456.948,25.8553,0,0.000885,0,0
0:2:2.493,459.822,26.0208,0,0.000885,0,0
0:2:3.187,462.989,26.2001,0,0.000885,0,0
0:2:3.886,465.978,26.3656,0,0.000885,0,0
0:2:4.585,468.972,26.5379,0,0.000885,0,0
0:2:5.293,472.784,26.7517,0,0.000885,0,0
0:2:5.993,475.715,26.9171,0,0.000885,0,0
0:2:6.687,478.059,27.055,0,0.000885,0,0
0:2:7.382,481.347,27.2412,0,0.000885,0,0
0:2:8.080,484.394,27.4136,0,0.000885,0,0
0:2:8.783,487.561,27.5928,0,0.000885,0,0
0:2:9.476,490.612,27.7652,0,0.000885,0,0
0:2:10.176,494.073,27.9582,0,0.000885,0,0
0:2:10.879,496.946,28.1237,0,0.000885,0,0
0:2:11.586,500.349,28.3168,0,0.000885,0,0
0:2:12.279,503.161,28.4753,0,0.000885,0,0
0:2:12.994,506.039,28.6339,0,0.000885,0,0
0:2:13.693,509.615,28.8408,0,0.000885,0,0
0:2:14.384,512.253,28.9856,0,0.000885,0,0
0:2:15.079,515.42,29.1648,0,0.000885,0,0
0:2:15.784,518.587,29.3441,0,0.000885,0,0
0:2:16.484,521.581,29.5165,0,0.000885,0,0
0:2:17.184,524.686,29.6888,0,0.000885,0,0
0:2:17.874,527.973,29.875,0,0.000885,0,0
0:2:18.579,531.082,30.0542,0,0.000885,0,0
0:2:19.298,534.071,30.2197,0,0.000885,0,0
0:2:19.993,536.593,30.3645,0,0.000885,0,0
0:2:20.698,539.703,30.5438,0,0.000885,0,0
0:2:21.400,543.337,30.7437,0,0.000885,0,0
0:2:22.096,546.798,30.9437,0,0.000885,0,0
0:2:22.795,549.556,31.0954,0,0.000885,0,0
0:2:23.497,552.665,31.2746,0,0.000885,0,0
0:2:24.191,555.538,31.4401,0,0.000885,0,0
0:2:24.899,558.528,31.6056,0,0.000885,0,0
0:2:25.603,561.579,31.7779,0,0.000885,0,0
0:2:26.304,564.982,31.971,0,0.000885,0,0
0:2:26.998,567.62,32.1227,0,0.000885,0,0
0:2:27.691,570.845,32.3019,0,0.000885,0,0
0:2:28.381,573.896,32.4743,0,0.000885,0,0
0:2:29.091,577.415,32.6743,0,0.000885,0,0
0:2:29.785,580.23,32.8328,0,0.000885,0,0
0:2:30.490,583.398,33.0121,0,0.000885,0,0
0:2:31.191,586.213,33.1707,0,0.000885,0,0
0:2:31.887,589.029,33.3293,0,0.000885,0,0
0:2:32.599,591.787,33.4878,0,0.000885,0,0
0:2:33.297,595.426,33.6947,0,0.000885,0,0
0:2:33.992,598.183,33.8533,0,0.000885,0,0
0:2:34.696,600.59,33.9843,0,0.000885,0,0
0:2:35.404,603.29,34.1359,0,0.000885,0,0
0:2:36.109,605.874,34.2876,0,0.000885,0,0
0:2:36.808,607.987,34.4048,0,0.000885,0,0
0:2:37.504,608.397,34.4255,0,0.000885,0,0
0:2:38.195,606.755,34.3359,0,0.000885,0,0
0:2:38.885,606.755,34.3359,0,0.000885,0,0
0:2:39.591,602.881,34.1153,0,0.000885,0,0
0:2:40.300,599.887,33.9498,0,0.000885,0,0
0:2:41.005,592.254,33.5154,0,0.000885,0,0
0:2:41.703,586.093,33.1638,0,0.000885,0,0
0:2:42.388,580.64,32.8604,0,0.000885,0,0
0:2:43.089,573.718,32.4674,0,0.000885,0,0
0:2:43.789,569.319,32.2192,0,0.000885,0,0
0:2:44.486,567.793,32.1296,0,0.000885,0,0
0:2:45.188,566.797,32.0744,0,0.000885,0,0
0:2:45.890,562.282,31.8193,0,0.000885,0,0
0:2:46.591,562.518,31.8331,0,0.000885,0,0
0:2:47.282,557.825,31.5642,0,0.000885,0,0
0:2:47.971,556.886,31.5159,0,0.000885,0,0
0:2:48.660,507.796,28.7373,0,0.000885,0,0
0:2:48.977,427.857,24.2144,0,0.000885,0,0