Folder: Experiment-Files (part 69)

File: DataFile2021-07-03_083004.csv
Test ID:,Date Tested:,Time:,Test Type:,Diameter Avg. (mm):,Cyl. Corr. Factor:,Height (mm):,Age (days):,Weight (kN):,Break Type:,Ramp Rate (MPa/s):,Load at Break (kN):,Stress at Break (MPa):
12,7/3/2021,08:30,Cylinder,100,1,200,0,3.6,Invalid/No Break,0.25,681.65,86.79
Sample Time,Load (kN),Stress (MPa),Long. Strain,Trans. Strain,Chan1 Deflection (mm),Chan2 Deflection (mm)
0:0:16.139,5.21776,0.661897,0,0.000885,0,0
0:0:17.661,9.67933,1.23416,0,0.000885,0,0
0:0:19.160,11.4942,1.46169,0,0.000885,0,0
0:0:20.665,13.3135,1.69611,0,0.000885,0,0
0:0:22.172,16.365,2.08222,0,0.000885,0,0
0:0:23.671,19.9414,2.53727,0,0.000885,0,0
0:0:25.162,23.1663,2.95096,0,0.000885,0,0
0:0:26.670,25.8664,3.29569,0,0.000885,0,0
0:0:28.181,28.9134,3.6818,0,0.000885,0,0
0:0:29.674,31.6713,4.03343,0,0.000885,0,0
0:0:31.166,34.3091,4.37128,0,0.000885,0,0
0:0:32.677,37.712,4.79875,0,0.000885,0,0
0:0:34.173,40.5856,5.16417,0,0.000885,0,0
0:0:35.667,43.6371,5.55717,0,0.000885,0,0
0:0:37.180,46.6263,5.93639,0,0.000885,0,0
0:0:38.686,49.6199,6.3156,0,0.000885,0,0
0:0:40.179,52.5513,6.68791,0,0.000885,0,0
0:0:41.671,55.1891,7.02576,0,0.000885,0,0
0:0:43.185,57.8313,7.3636,0,0.000885,0,0
0:0:44.678,61.4655,7.82555,0,0.000885,0,0
0:0:46.171,63.9298,8.14271,0,0.000885,0,0
0:0:47.678,66.919,8.52192,0,0.000885,0,0
0:0:49.179,69.5613,8.85976,0,0.000885,0,0
0:0:50.669,73.0798,9.30792,0,0.000885,0,0
0:0:52.179,75.6598,9.63198,0,0.000885,0,0
0:0:53.677,78.649,10.0112,0,0.000885,0,0
0:0:55.170,82.0519,10.4456,0,0.000885,0,0
0:0:56.667,84.3961,10.7489,0,0.000885,0,0
0:0:58.180,87.9191,11.1971,0,0.000885,0,0
0:0:59.674,89.9119,11.4453,0,0.000885,0,0
0:1:1.166,93.6662,11.9279,0,0.000885,0,0
0:1:2.676,96.4197,12.2796,0,0.000885,0,0
0:1:4.175,99.2932,12.645,0,0.000885,0,0
0:1:5.665,102.523,13.0518,0,0.000885,0,0
0:1:7.174,105.512,13.431,0,0.000885,0,0
0:1:8.682,107.976,13.7481,0,0.000885,0,0
0:1:10.172,111.379,14.1825,0,0.000885,0,0
0:1:11.672,113.901,14.4997,0,0.000885,0,0
0:1:13.177,117.593,14.9754,0,0.000885,0,0
0:1:14.670,120.293,15.3133,0,0.000885,0,0
0:1:16.169,122.58,15.6097,0,0.000885,0,0
0:1:17.680,126.04,16.051,0,0.000885,0,0
0:1:19.176,128.678,16.3819,0,0.000885,0,0
0:1:20.669,132.023,16.8094,0,0.000885,0,0
0:1:22.179,134.074,17.0714,0,0.000885,0,0
0:1:23.686,137.77,17.5403,0,0.000885,0,0
0:1:25.177,140.76,17.9195,0,0.000885,0,0
0:1:26.675,143.989,18.3332,0,0.000885,0,0
0:1:28.183,146.862,18.6986,0,0.000885,0,0
0:1:29.672,149.149,18.9882,0,0.000885,0,0
0:1:31.172,152.903,19.4708,0,0.000885,0,0
0:1:32.686,155.541,19.8017,0,0.000885,0,0
0:1:34.179,158.592,20.1947,0,0.000885,0,0
0:1:35.671,161.346,20.5464,0,0.000885,0,0
0:1:37.176,164.162,20.9049,0,0.000885,0,0
0:1:38.678,167.387,21.3117,0,0.000885,0,0
0:1:40.172,169.793,21.622,0,0.000885,0,0
0:1:41.674,172.845,22.0081,0,0.000885,0,0
0:1:43.187,175.834,22.3873,0,0.000885,0,0
0:1:44.677,178.765,22.7596,0,0.000885,0,0
0:1:46.169,182.226,23.2009,0,0.000885,0,0
0:1:47.676,184.748,23.5249,0,0.000885,0,0
0:1:49.174,188.444,23.9938,0,0.000885,0,0
0:1:50.662,190.379,24.242,0,0.000885,0,0
0:1:52.169,194.192,24.7246,0,0.000885,0,0
0:1:53.663,196.011,24.959,0,0.000885,0,0
0:1:55.174,198.942,25.3313,0,0.000885,0,0
0:1:56.673,202.287,25.7588,0,0.000885,0,0
0:1:58.172,205.628,26.1794,0,0.000885,0,0
0:1:59.671,208.444,26.5379,0,0.000885,0,0
0:2:1.172,210.788,26.8413,0,0.000885,0,0
0:2:2.673,214.72,27.3377,0,0.000885,0,0
0:2:4.178,216.949,27.6204,0,0.000885,0,0
0:2:5.659,220,28.0134,0,0.000885,0,0
0:2:7.157,223.167,28.4133,0,0.000885,0,0
0:2:8.650,226.392,28.827,0,0.000885,0,0
0:2:10.160,228.501,29.0959,0,0.000885,0,0
0:2:11.670,231.668,29.4958,0,0.000885,0,0
0:2:13.172,235.013,29.9232,0,0.000885,0,0
0:2:14.660,237.709,30.268,0,0.000885,0,0
0:2:16.160,240.057,30.5645,0,0.000885,0,0
0:2:17.664,243.869,31.0471,0,0.000885,0,0
0:2:19.167,246.801,31.4263,0,0.000885,0,0
0:2:20.671,249.968,31.8262,0,0.000885,0,0
0:2:22.181,252.899,32.1985,0,0.000885,0,0
0:2:23.675,255.951,32.5915,0,0.000885,0,0
0:2:25.174,259.06,32.9845,0,0.000885,0,0
0:2:26.672,260.995,33.2327,0,0.000885,0,0
0:2:28.178,263.459,33.543,0,0.000885,0,0
0:2:29.675,267.738,34.0877,0,0.000885,0,0
0:2:31.164,270.612,34.4531,0,0.000885,0,0
0:2:32.667,272.547,34.7013,0,0.000885,0,0
0:2:34.169,275.776,35.115,0,0.000885,0,0
0:2:35.669,279.175,35.5425,0,0.000885,0,0
0:2:37.174,281.817,35.8803,0,0.000885,0,0
0:2:38.677,285.042,36.294,0,0.000885,0,0
0:2:40.175,288.445,36.7284,0,0.000885,0,0
0:2:41.664,290.847,37.0317,0,0.000885,0,0
0:2:43.169,293.721,37.3972,0,0.000885,0,0
0:2:44.679,296.83,37.7902,0,0.000885,0,0
0:2:46.177,298.765,38.0384,0,0.000885,0,0
0:2:47.679,302.11,38.4659,0,0.000885,0,0
0:2:49.168,305.98,38.9554,0,0.000885,0,0
0:2:50.679,308.618,39.2932,0,0.000885,0,0
0:2:52.178,311.553,39.6655,0,0.000885,0,0
0:2:53.678,314.076,39.9896,0,0.000885,0,0
0:2:55.177,317.768,40.4584,0,0.000885,0,0
0:2:56.666,320.174,40.7687,0,0.000885,0,0
0:2:58.167,323.341,41.1686,0,0.000885,0,0
0:2:59.667,326.682,41.5961,0,0.000885,0,0
0:3:1.178,329.324,41.9339,0,0.000885,0,0
0:3:2.684,332.255,42.3062,0,0.000885,0,0
0:3:4.170,335.071,42.6648,0,0.000885,0,0
0:3:5.667,337.767,43.0026,0,0.000885,0,0
0:3:7.167,341.054,43.4232,0,0.000885,0,0
0:3:8.671,344.337,43.8438,0,0.000885,0,0
0:3:10.159,346.272,44.092,0,0.000885,0,0
0:3:11.681,349.145,44.4574,0,0.000885,0,0
0:3:13.177,352.197,44.8435,0,0.000885,0,0
0:3:14.678,355.951,45.3192,0,0.000885,0,0
0:3:16.166,358.705,45.6709,0,0.000885,0,0
0:3:17.670,361.169,45.988,0,0.000885,0,0
0:3:19.173,364.042,46.3535,0,0.000885,0,0
0:3:20.672,367.388,46.774,0,0.000885,0,0
0:3:22.167,370.497,47.1739,0,0.000885,0,0
0:3:23.669,373.135,47.5118,0,0.000885,0,0
0:3:25.181,376.831,47.9806,0,0.000885,0,0
0:3:26.680,379.291,48.2909,0,0.000885,0,0
0:3:28.185,382.049,48.6425,0,0.000885,0,0
0:3:29.664,384.807,48.9941,0,0.000885,0,0
0:3:31.171,388.383,49.4492,0,0.000885,0,0
0:3:32.675,390.732,49.7526,0,0.000885,0,0
0:3:34.174,393.894,50.1525,0,0.000885,0,0
0:3:35.675,396.888,50.5317,0,0.000885,0,0
0:3:37.171,399.352,50.8488,0,0.000885,0,0
0:3:38.668,402.813,51.2901,0,0.000885,0,0
0:3:40.170,406.038,51.6969,0,0.000885,0,0
0:3:41.652,408.44,52.0072,0,0.000885,0,0
0:3:43.156,411.314,52.3726,0,0.000885,0,0
0:3:44.667,413.898,52.6966,0,0.000885,0,0
0:3:46.174,417.474,53.1517,0,0.000885,0,0
0:3:47.671,420.464,53.5378,0,0.000885,0,0
0:3:49.166,423.693,53.9446,0,0.000885,0,0
0:3:50.673,426.331,54.2824,0,0.000885,0,0
0:3:52.170,428.853,54.6065,0,0.000885,0,0
0:3:53.675,432.136,55.0202,0,0.000885,0,0
0:3:55.168,434.894,55.3718,0,0.000885,0,0
0:3:56.672,438.061,55.7786,0,0.000885,0,0
0:3:58.175,441.112,56.1647,0,0.000885,0,0
0:3:59.680,443.808,56.5094,0,0.000885,0,0
0:4:1.178,446.859,56.8955,0,0.000885,0,0
0:4:2.678,450.32,57.3368,0,0.000885,0,0
0:4:4.184,452.135,57.5712,0,0.000885,0,0
0:4:5.672,455.654,58.0125,0,0.000885,0,0
0:4:7.173,458.469,58.371,0,0.000885,0,0
0:4:8.682,461.285,58.7295,0,0.000885,0,0
0:4:10.162,464.572,59.1501,0,0.000885,0,0
0:4:11.664,467.152,59.4811,0,0.000885,0,0
0:4:13.170,470.141,59.8603,0,0.000885,0,0
0:4:14.684,473.722,60.3153,0,0.000885,0,0
0:4:16.184,476.418,60.6601,0,0.000885,0,0
0:4:17.688,479.469,61.0462,0,0.000885,0,0
0:4:19.183,482.165,61.3909,0,0.000885,0,0
0:4:20.673,485.452,61.8115,0,0.000885,0,0
0:4:22.189,488.384,62.1838,0,0.000885,0,0
0:4:23.692,491.021,62.5217,0,0.000885,0,0
0:4:25.184,494.131,62.9147,0,0.000885,0,0
0:4:26.685,497.062,63.287,0,0.000885,0,0
0:4:28.190,500.056,63.6662,0,0.000885,0,0
0:4:29.670,502.929,64.0316,0,0.000885,0,0
0:4:31.179,505.683,64.3832,0,0.000885,0,0
0:4:32.679,508.498,64.7418,0,0.000885,0,0
0:4:34.186,511.959,65.183,0,0.000885,0,0
0:4:35.675,514.366,65.4933,0,0.000885,0,0
0:4:37.186,517.591,65.9001,0,0.000885,0,0
0:4:38.679,520.7,66.3,0,0.000885,0,0
0:4:40.192,523.453,66.6516,0,0.000885,0,0
0:4:41.677,526.447,67.0308,0,0.000885,0,0
0:4:43.190,529.263,67.3894,0,0.000885,0,0
0:4:44.670,532.136,67.7548,0,0.000885,0,0
0:4:46.190,534.894,68.1064,0,0.000885,0,0
0:4:47.691,538.355,68.5477,0,0.000885,0,0
0:4:49.189,541.166,68.9062,0,0.000885,0,0
0:4:50.689,543.337,69.182,0,0.000885,0,0
0:4:52.188,546.918,69.637,0,0.000885,0,0
0:4:53.679,549.965,70.0232,0,0.000885,0,0
0:4:55.179,553.074,70.4162,0,0.000885,0,0
0:4:56.680,556.126,70.8092,0,0.000885,0,0
0:4:58.176,558.821,71.1539,0,0.000885,0,0
0:4:59.676,561.521,71.4917,0,0.000885,0,0
0:5:1.189,564.746,71.9054,0,0.000885,0,0
0:5:2.689,566.975,72.1881,0,0.000885,0,0
0:5:4.183,570.845,72.6845,0,0.000885,0,0
0:5:5.675,573.073,72.9672,0,0.000885,0,0
0:5:7.174,576.24,73.3671,0,0.000885,0,0
0:5:8.668,579.172,73.7394,0,0.000885,0,0
0:5:10.146,581.93,74.0911,0,0.000885,0,0
0:5:11.637,585.039,74.491,0,0.000885,0,0
0:5:13.134,588.5,74.9322,0,0.000885,0,0
0:5:14.620,591.2,75.277,0,0.000885,0,0
0:5:16.109,593.664,75.5872,0,0.000885,0,0
0:5:17.617,596.778,75.9871,0,0.000885,0,0
0:5:19.108,599.829,76.3732,0,0.000885,0,0
0:5:20.597,602.351,76.6973,0,0.000885,0,0
0:5:22.094,605.523,77.0972,0,0.000885,0,0
0:5:23.593,608.281,77.4488,0,0.000885,0,0
0:5:25.078,611.217,77.8211,0,0.000885,0,0
0:5:26.582,613.508,78.1107,0,0.000885,0,0
0:5:28.087,617.026,78.5658,0,0.000885,0,0
0:5:29.574,619.495,78.876,0,0.000885,0,0
0:5:31.066,622.546,79.2621,0,0.000885,0,0
0:5:32.576,625.069,79.5862,0,0.000885,0,0
0:5:34.080,628.592,80.0343,0,0.000885,0,0
0:5:35.569,631.176,80.3653,0,0.000885,0,0
0:5:37.069,633.876,80.71,0,0.000885,0,0
0:5:38.570,636.692,81.0686,0,0.000885,0,0
0:5:40.081,639.04,81.365,0,0.000885,0,0
0:5:41.578,641.74,81.7098,0,0.000885,0,0
0:5:43.091,644.441,82.0545,0,0.000885,0,0
0:5:44.587,647.376,82.4268,0,0.000885,0,0
0:5:46.086,649.725,82.7233,0,0.000885,0,0
0:5:47.602,653.306,83.1784,0,0.000885,0,0
0:5:49.094,656.593,83.5989,0,0.000885,0,0
0:5:50.594,659.88,84.0195,0,0.000885,0,0
0:5:52.109,663.75,84.509,0,0.000885,0,0
0:5:53.608,667.038,84.9296,0,0.000885,0,0
0:5:55.098,670.267,85.3433,0,0.000885,0,0
0:5:56.601,673.848,85.7984,0,0.000885,0,0
0:5:58.112,677.135,86.2189,0,0.000885,0,0
0:5:59.598,678.661,86.412,0,0.000885,0,0
0:6:1.098,681.361,86.7567,0,0.000885,0,0
0:6:2.604,675.08,85.9569,0,0.000885,0,0
0:6:4.094,541.051,68.8855,0,0.000885,0,0
0:6:4.357,530.726,67.5755,0,0.000885,0,0

File: DataFile2021-07-03_083607.csv
Test ID:,Date Tested:,Time:,Test Type:,Diameter Avg. (mm):,Cyl. Corr. Factor:,Height (mm):,Age (days):,Weight (kN):,Break Type:,Ramp Rate (MPa/s):,Load at Break (kN):,Stress at Break (MPa):
12,7/3/2021,08:36,Cylinder,100,1,200,0,3.6,3,0.25,607.75,77.38
Sample Time,Load (kN),Stress (MPa),Long. Strain,Trans. Strain,Chan1 Deflection (mm),Chan2 Deflection (mm)
0:0:19.921,5.10211,0.648107,0,0.000885,0,0
0:0:21.221,11.3786,1.4479,0,0.000885,0,0
0:0:22.512,10.7336,1.36516,0,0.000885,0,0
0:0:23.831,12.6685,1.61337,0,0.000885,0,0
0:0:25.123,14.5457,1.85469,0,0.000885,0,0
0:0:26.436,18.0642,2.30285,0,0.000885,0,0
0:0:27.737,20.9956,2.67517,0,0.000885,0,0
0:0:29.031,22.9929,2.93027,0,0.000885,0,0
0:0:30.331,25.6307,3.26122,0,0.000885,0,0
0:0:31.644,28.0371,3.57148,0,0.000885,0,0
0:0:32.934,30.9685,3.9438,0,0.000885,0,0
0:0:34.230,33.6063,4.28164,0,0.000885,0,0
0:0:35.532,35.7192,4.55054,0,0.000885,0,0
0:0:36.841,38.2992,4.87459,0,0.000885,0,0
0:0:38.136,41.4085,5.27449,0,0.000885,0,0
0:0:39.429,43.4591,5.53649,0,0.000885,0,0
0:0:40.731,45.8078,5.83296,0,0.000885,0,0
0:0:42.037,48.3878,6.16391,0,0.000885,0,0
0:0:43.334,51.2613,6.52934,0,0.000885,0,0
0:0:44.634,53.8991,6.86028,0,0.000885,0,0
0:0:45.941,55.9542,7.12228,0,0.000885,0,0
0:0:47.246,58.8856,7.4946,0,0.000885,0,0
0:0:48.544,61.7013,7.85313,0,0.000885,0,0
0:0:49.835,63.8097,8.12202,0,0.000885,0,0
0:0:51.141,67.0391,8.53571,0,0.000885,0,0
0:0:52.444,68.7384,8.74945,0,0.000885,0,0
0:0:53.739,71.7276,9.13555,0,0.000885,0,0
0:0:55.032,74.2497,9.45271,0,0.000885,0,0
0:0:56.346,76.4783,9.7354,0,0.000885,0,0
0:0:57.646,79.6454,10.1422,0,0.000885,0,0
0:0:58.936,81.7583,10.4111,0,0.000885,0,0
0:1:0.230,84.6319,10.7765,0,0.000885,0,0
0:1:1.545,87.0384,11.0799,0,0.000885,0,0
0:1:2.843,89.5605,11.4039,0,0.000885,0,0
0:1:4.133,91.8469,11.6935,0,0.000885,0,0
0:1:5.428,94.7783,12.0658,0,0.000885,0,0
0:1:6.741,96.2462,12.252,0,0.000885,0,0
0:1:8.038,99.3555,12.6519,0,0.000885,0,0
0:1:9.326,101.642,12.9415,0,0.000885,0,0
0:1:10.641,104.809,13.3414,0,0.000885,0,0
0:1:11.946,107.331,13.6654,0,0.000885,0,0
0:1:13.243,109.969,14.0033,0,0.000885,0,0
0:1:14.533,112.669,14.348,0,0.000885,0,0
0:1:15.841,114.777,14.6169,0,0.000885,0,0
0:1:17.145,117.535,14.9685,0,0.000885,0,0
0:1:18.437,119.942,15.2719,0,0.000885,0,0
0:1:19.733,122.58,15.6097,0,0.000885,0,0
0:1:21.041,124.924,15.9062,0,0.000885,0,0
0:1:22.349,128.385,16.3475,0,0.000885,0,0
0:1:23.637,130.382,16.6026,0,0.000885,0,0
0:1:24.934,133.135,16.9542,0,0.000885,0,0
0:1:26.240,135.19,17.2162,0,0.000885,0,0
0:1:27.546,138.064,17.5816,0,0.000885,0,0
0:1:28.835,141.111,17.9677,0,0.000885,0,0
0:1:30.128,142.757,18.1746,0,0.000885,0,0
0:1:31.439,145.862,18.5745,0,0.000885,0,0
0:1:32.738,148.21,18.871,0,0.000885,0,0
0:1:34.030,150.968,19.2226,0,0.000885,0,0
0:1:35.336,153.842,19.588,0,0.000885,0,0
0:1:36.650,156.364,19.9121,0,0.000885,0,0
0:1:37.940,158.241,20.1465,0,0.000885,0,0
0:1:39.236,160.527,20.4361,0,0.000885,0,0
0:1:40.535,162.814,20.7325,0,0.000885,0,0
0:1:41.844,166.159,21.1531,0,0.000885,0,0
0:1:43.134,168.325,21.4289,0,0.000885,0,0
0:1:44.439,171.141,21.7874,0,0.000885,0,0
0:1:45.740,173.547,22.0977,0,0.000885,0,0
0:1:47.048,176.363,22.4562,0,0.000885,0,0
0:1:48.340,178.765,22.7596,0,0.000885,0,0
0:1:49.634,181.229,23.0768,0,0.000885,0,0
0:1:50.945,183.636,23.3801,0,0.000885,0,0
0:1:52.254,186.745,23.78,0,0.000885,0,0
0:1:53.547,188.738,24.0282,0,0.000885,0,0
0:1:54.837,192.141,24.4626,0,0.000885,0,0
0:1:56.145,194.192,24.7246,0,0.000885,0,0
0:1:57.433,196.362,25.0004,0,0.000885,0,0
0:1:58.730,199.765,25.4348,0,0.000885,0,0
0:2:0.031,202.167,25.7381,0,0.000885,0,0
0:2:1.336,204.28,26.007,0,0.000885,0,0
0:2:2.631,206.331,26.269,0,0.000885,0,0
0:2:3.917,208.915,26.6,0,0.000885,0,0
0:2:5.197,212.256,27.0274,0,0.000885,0,0
0:2:6.501,214.133,27.2619,0,0.000885,0,0
0:2:7.788,217.006,27.6273,0,0.000885,0,0
0:2:9.076,220.174,28.0341,0,0.000885,0,0
0:2:10.365,222.166,28.2892,0,0.000885,0,0
0:2:11.668,224.164,28.5443,0,0.000885,0,0
0:2:12.950,227.446,28.958,0,0.000885,0,0
0:2:14.239,229.791,29.2613,0,0.000885,0,0
0:2:15.538,232.313,29.5785,0,0.000885,0,0
0:2:16.839,234.426,29.8474,0,0.000885,0,0
0:2:18.137,237.477,30.2335,0,0.000885,0,0
0:2:19.434,239.999,30.5576,0,0.000885,0,0
0:2:20.742,242.579,30.8885,0,0.000885,0,0
0:2:22.044,244.63,31.1505,0,0.000885,0,0
0:2:23.334,247.739,31.5435,0,0.000885,0,0
0:2:24.639,250.204,31.8538,0,0.000885,0,0
0:2:25.941,252.548,32.1571,0,0.000885,0,0
0:2:27.240,255.248,32.5019,0,0.000885,0,0
0:2:28.534,257.534,32.7915,0,0.000885,0,0
0:2:29.817,259.999,33.1017,0,0.000885,0,0
0:2:31.118,262.752,33.4534,0,0.000885,0,0
0:2:32.408,265.336,33.7843,0,0.000885,0,0
0:2:33.694,267.738,34.0877,0,0.000885,0,0
0:2:34.976,270.318,34.4186,0,0.000885,0,0
0:2:36.281,272.841,34.7427,0,0.000885,0,0
0:2:37.569,275.95,35.1357,0,0.000885,0,0
0:2:38.855,277.591,35.3425,0,0.000885,0,0
0:2:40.144,280.758,35.7493,0,0.000885,0,0
0:2:41.447,283.516,36.1009,0,0.000885,0,0
0:2:42.737,285.393,36.3354,0,0.000885,0,0
0:2:44.043,287.973,36.6663,0,0.000885,0,0
0:2:45.328,290.847,37.0317,0,0.000885,0,0
0:2:46.633,293.721,37.3972,0,0.000885,0,0
0:2:47.933,295.598,37.6385,0,0.000885,0,0
0:2:49.241,298.298,37.9832,0,0.000885,0,0
0:2:50.541,300.642,38.2797,0,0.000885,0,0
0:2:51.841,303.693,38.6658,0,0.000885,0,0
0:2:53.133,306.389,39.0105,0,0.000885,0,0
0:2:54.437,308.56,39.2863,0,0.000885,0,0
0:2:55.743,311.26,39.6311,0,0.000885,0,0
0:2:57.039,313.72,39.9413,0,0.000885,0,0
0:2:58.345,315.89,40.2171,0,0.000885,0,0
0:2:59.634,319,40.617,0,0.000885,0,0
0:3:0.939,321.406,40.9204,0,0.000885,0,0
0:3:2.238,323.986,41.2513,0,0.000885,0,0
0:3:3.544,326.566,41.5823,0,0.000885,0,0
0:3:4.843,328.559,41.8305,0,0.000885,0,0
0:3:6.149,332.02,42.2718,0,0.000885,0,0
0:3:7.438,333.897,42.5131,0,0.000885,0,0
0:3:8.741,336.655,42.8647,0,0.000885,0,0
0:3:10.042,339.35,43.2094,0,0.000885,0,0
0:3:11.347,341.463,43.4783,0,0.000885,0,0
0:3:12.647,344.452,43.8576,0,0.000885,0,0
0:3:13.946,346.681,44.1402,0,0.000885,0,0
0:3:15.243,349.91,44.5539,0,0.000885,0,0
0:3:16.548,352.139,44.8366,0,0.000885,0,0
0:3:17.845,354.132,45.0917,0,0.000885,0,0
0:3:19.145,357.005,45.4571,0,0.000885,0,0
0:3:20.443,360.057,45.8432,0,0.000885,0,0
0:3:21.749,361.698,46.0501,0,0.000885,0,0
0:3:23.046,364.687,46.4362,0,0.000885,0,0
0:3:24.348,367.267,46.7602,0,0.000885,0,0
0:3:25.646,369.967,47.105,0,0.000885,0,0
0:3:26.940,371.902,47.3532,0,0.000885,0,0
0:3:28.243,374.954,47.7393,0,0.000885,0,0
0:3:29.546,377.183,48.022,0,0.000885,0,0
0:3:30.844,379.353,48.2978,0,0.000885,0,0
0:3:32.149,382.049,48.6425,0,0.000885,0,0
0:3:33.450,385.274,49.0562,0,0.000885,0,0
0:3:34.734,387.68,49.3596,0,0.000885,0,0
0:3:36.033,389.967,49.6491,0,0.000885,0,0
0:3:37.337,392.373,49.9594,0,0.000885,0,0
0:3:38.647,395.011,50.2973,0,0.000885,0,0
0:3:39.943,397.711,50.6351,0,0.000885,0,0
0:3:41.248,400.055,50.9385,0,0.000885,0,0
0:3:42.547,402.226,51.2143,0,0.000885,0,0
0:3:43.845,404.922,51.559,0,0.000885,0,0
0:3:45.142,407.27,51.8555,0,0.000885,0,0
0:3:46.449,410.202,52.2278,0,0.000885,0,0
0:3:47.746,412.43,52.5105,0,0.000885,0,0
0:3:49.049,414.659,52.7932,0,0.000885,0,0
0:3:50.347,417.297,53.131,0,0.000885,0,0
0:3:51.654,420.584,53.5516,0,0.000885,0,0
0:3:52.944,422.692,53.8205,0,0.000885,0,0
0:3:54.243,424.921,54.1032,0,0.000885,0,0
0:3:55.553,427.737,54.4617,0,0.000885,0,0
0:3:56.855,430.846,54.8547,0,0.000885,0,0
0:3:58.144,433.195,55.1581,0,0.000885,0,0
0:3:59.449,436.713,55.6062,0,0.000885,0,0
0:4:0.754,439.235,55.9234,0,0.000885,0,0
0:4:2.051,442.518,56.344,0,0.000885,0,0
0:4:3.349,445.449,56.7163,0,0.000885,0,0
0:4:4.650,447.384,56.9645,0,0.000885,0,0
0:4:5.956,449.964,57.2885,0,0.000885,0,0
0:4:7.255,452.722,57.6402,0,0.000885,0,0
0:4:8.547,454.364,57.8539,0,0.000885,0,0
0:4:9.853,457.415,58.24,0,0.000885,0,0
0:4:11.156,459.234,58.4744,0,0.000885,0,0
0:4:12.455,462.166,58.8468,0,0.000885,0,0
0:4:13.745,464.159,59.1019,0,0.000885,0,0
0:4:15.052,466.565,59.4052,0,0.000885,0,0
0:4:16.359,469.906,59.8327,0,0.000885,0,0
0:4:17.654,471.903,60.0878,0,0.000885,0,0
0:4:18.952,474.011,60.3498,0,0.000885,0,0
0:4:20.250,477.179,60.7566,0,0.000885,0,0
0:4:21.555,479.234,61.0186,0,0.000885,0,0
0:4:22.849,482.636,61.453,0,0.000885,0,0
0:4:24.151,484.278,61.6598,0,0.000885,0,0
0:4:25.450,486.916,61.9977,0,0.000885,0,0
0:4:26.755,489.496,62.3217,0,0.000885,0,0
0:4:28.047,492.369,62.694,0,0.000885,0,0
0:4:29.350,494.891,63.0112,0,0.000885,0,0
0:4:30.658,498.121,63.4249,0,0.000885,0,0
0:4:31.950,499.82,63.6386,0,0.000885,0,0
0:4:33.251,502.458,63.9765,0,0.000885,0,0
0:4:34.549,505.273,64.335,0,0.000885,0,0
0:4:35.856,507.622,64.6315,0,0.000885,0,0
0:4:37.149,510.496,64.9969,0,0.000885,0,0
0:4:38.450,513.369,65.3623,0,0.000885,0,0
0:4:39.757,515.713,65.6657,0,0.000885,0,0
0:4:41.054,517.648,65.907,0,0.000885,0,0
0:4:42.345,520.522,66.2724,0,0.000885,0,0
0:4:43.656,523.338,66.6309,0,0.000885,0,0
0:4:44.951,525.508,66.9067,0,0.000885,0,0
0:4:46.260,527.679,67.1894,0,0.000885,0,0
0:4:47.552,530.846,67.5893,0,0.000885,0,0
0:4:48.853,533.542,67.934,0,0.000885,0,0
0:4:50.151,535.891,68.2305,0,0.000885,0,0
0:4:51.457,538.235,68.527,0,0.000885,0,0
0:4:52.758,540.993,68.8786,0,0.000885,0,0
0:4:54.055,543.457,69.1958,0,0.000885,0,0
0:4:55.353,545.508,69.4578,0,0.000885,0,0
0:4:56.656,547.856,69.7543,0,0.000885,0,0
0:4:57.957,551.433,70.2093,0,0.000885,0,0
0:4:59.249,553.661,70.492,0,0.000885,0,0
0:5:0.558,555.654,70.7471,0,0.000885,0,0
0:5:1.861,558.585,71.1194,0,0.000885,0,0
0:5:3.152,561.637,71.5124,0,0.000885,0,0
0:5:4.458,564.043,71.8158,0,0.000885,0,0
0:5:5.757,566.503,72.133,0,0.000885,0,0
0:5:7.047,569.319,72.4915,0,0.000885,0,0
0:5:8.351,570.845,72.6845,0,0.000885,0,0
0:5:9.655,573.309,72.9948,0,0.000885,0,0
0:5:10.965,576.361,73.3809,0,0.000885,0,0
0:5:12.257,579.292,73.7601,0,0.000885,0,0
0:5:13.549,581.93,74.0911,0,0.000885,0,0
0:5:14.854,584.278,74.3944,0,0.000885,0,0
0:5:16.168,586.623,74.6909,0,0.000885,0,0
0:5:17.458,589.323,75.0356,0,0.000885,0,0
0:5:18.758,591.609,75.3252,0,0.000885,0,0
0:5:20.045,595.016,75.7596,0,0.000885,0,0
0:5:21.353,595.839,75.863,0,0.000885,0,0
0:5:22.656,596.542,75.9526,0,0.000885,0,0
0:5:23.958,600.417,76.4491,0,0.000885,0,0
0:5:25.264,604.82,77.0075,0,0.000885,0,0
0:5:26.575,607.93,77.4005,0,0.000885,0,0
0:5:27.858,606.226,77.1868,0,0.000885,0,0
0:5:29.156,603.468,76.8352,0,0.000885,0,0
0:5:29.349,443.047,56.4129,0,0.000885,0,0