Folder: Experiment-Files (part 79)

File: DataFile2021-07-17_040344.csv
Test ID:,Date Tested:,Time:,Test Type:,Diameter Avg. (mm):,Cyl. Corr. Factor:,Height (mm):,Age (days):,Weight (kN):,Break Type:,Ramp Rate (MPa/s):,Load at Break (kN):,Stress at Break (MPa):
12,7/17/2021,04:03,Cylinder,100,1,200,0,3.6,3,0.25,1186.29,151.04
Sample Time,Load (kN),Stress (MPa),Long. Strain,Trans. Strain,Chan1 Deflection (mm),Chan2 Deflection (mm)
0:0:4.189,5.28004,0.668791,0,0.000885,0,0
0:0:6.775,10.0307,1.27553,0,0.000885,0,0
0:0:9.358,14.9549,1.90295,0,0.000885,0,0
0:0:11.972,19.7634,2.51659,0,0.000885,0,0
0:0:14.562,24.9857,3.17848,0,0.000885,0,0
0:0:17.174,29.852,3.79901,0,0.000885,0,0
0:0:19.769,36.2441,4.61259,0,0.000885,0,0
0:0:22.376,41.0571,5.22623,0,0.000885,0,0
0:0:24.973,46.9777,5.98465,0,0.000885,0,0
0:0:27.577,51.4348,6.55002,0,0.000885,0,0
0:0:30.175,56.0698,7.13607,0,0.000885,0,0
0:0:32.780,61.5234,7.83244,0,0.000885,0,0
0:0:35.387,66.9769,8.52881,0,0.000885,0,0
0:0:37.978,71.6697,9.12866,0,0.000885,0,0
0:0:40.585,76.7719,9.77677,0,0.000885,0,0
0:0:43.178,81.4647,10.3697,0,0.000885,0,0
0:0:45.788,87.3319,11.1212,0,0.000885,0,0
0:0:48.378,91.9625,11.7073,0,0.000885,0,0
0:0:50.987,97.1269,12.3692,0,0.000885,0,0
0:0:53.575,101.7,12.9484,0,0.000885,0,0
0:0:56.185,107.153,13.6447,0,0.000885,0,0
0:0:58.775,112.549,14.3273,0,0.000885,0,0
0:1:1.387,117.478,14.9547,0,0.000885,0,0
0:1:3.976,122.464,15.589,0,0.000885,0,0
0:1:6.589,127.624,16.2509,0,0.000885,0,0
0:1:9.175,132.962,16.9266,0,0.000885,0,0
0:1:11.789,137.886,17.5541,0,0.000885,0,0
0:1:14.378,143.517,18.2711,0,0.000885,0,0
0:1:16.992,148.21,18.871,0,0.000885,0,0
0:1:19.579,153.197,19.5053,0,0.000885,0,0
0:1:22.190,158.415,20.1672,0,0.000885,0,0
0:1:24.780,163.343,20.7946,0,0.000885,0,0
0:1:27.390,168.325,21.4289,0,0.000885,0,0
0:1:29.990,173.547,22.0977,0,0.000885,0,0
0:1:32.588,178.885,22.7734,0,0.000885,0,0
0:1:35.191,183.809,23.4008,0,0.000885,0,0
0:1:37.785,188.854,24.0489,0,0.000885,0,0
0:1:40.384,193.724,24.6625,0,0.000885,0,0
0:1:42.959,199.178,25.3589,0,0.000885,0,0
0:1:45.547,203.871,25.9588,0,0.000885,0,0
0:1:48.139,209.089,26.6207,0,0.000885,0,0
0:1:50.751,214.369,27.2963,0,0.000885,0,0
0:1:53.339,219.586,27.9582,0,0.000885,0,0
0:1:55.951,224.751,28.6132,0,0.000885,0,0
0:1:58.529,229.266,29.1924,0,0.000885,0,0
0:2:1.124,234.541,29.8612,0,0.000885,0,0
0:2:3.693,239.648,30.5093,0,0.000885,0,0
0:2:6.285,245.044,31.1988,0,0.000885,0,0
0:2:8.853,250.088,31.84,0,0.000885,0,0
0:2:11.445,255.421,32.5226,0,0.000885,0,0
0:2:14.041,259.647,33.0604,0,0.000885,0,0
0:2:16.643,265.746,33.8326,0,0.000885,0,0
0:2:19.247,270.087,34.391,0,0.000885,0,0
0:2:21.841,275.421,35.0667,0,0.000885,0,0
0:2:24.446,280.701,35.7424,0,0.000885,0,0
0:2:27.041,285.629,36.3698,0,0.000885,0,0
0:2:29.648,290.847,37.0317,0,0.000885,0,0
0:2:32.238,295.655,37.6454,0,0.000885,0,0
0:2:34.843,301.407,38.3762,0,0.000885,0,0
0:2:37.446,305.864,38.9416,0,0.000885,0,0
0:2:40.051,311.26,39.6311,0,0.000885,0,0
0:2:42.644,316.184,40.2585,0,0.000885,0,0
0:2:45.251,321.228,40.8997,0,0.000885,0,0
0:2:47.852,325.743,41.472,0,0.000885,0,0
0:2:50.454,331.201,42.1683,0,0.000885,0,0
0:2:53.038,336.597,42.8578,0,0.000885,0,0
0:2:55.655,341.815,43.5197,0,0.000885,0,0
0:2:58.248,347.037,44.1885,0,0.000885,0,0
0:3:0.854,351.845,44.7952,0,0.000885,0,0
0:3:3.446,357.477,45.5123,0,0.000885,0,0
0:3:6.046,362.579,46.1673,0,0.000885,0,0
0:3:8.652,367.152,46.7465,0,0.000885,0,0
0:3:11.241,372.196,47.3877,0,0.000885,0,0
0:3:13.839,377.534,48.0702,0,0.000885,0,0
0:3:16.451,382.52,48.7046,0,0.000885,0,0
0:3:19.047,387.445,49.332,0,0.000885,0,0
0:3:21.638,392.96,50.0353,0,0.000885,0,0
0:3:24.244,398.236,50.704,0,0.000885,0,0
0:3:26.849,403.107,51.3246,0,0.000885,0,0
0:3:29.444,408.147,51.9658,0,0.000885,0,0
0:3:32.050,413.72,52.6759,0,0.000885,0,0
0:3:34.653,418.649,53.3034,0,0.000885,0,0
0:3:37.255,424.102,53.9997,0,0.000885,0,0
0:3:39.853,428.324,54.5375,0,0.000885,0,0
0:3:42.454,433.31,55.1718,0,0.000885,0,0
0:3:45.053,439.115,55.9096,0,0.000885,0,0
0:3:47.651,443.986,56.5301,0,0.000885,0,0
0:3:50.253,448.501,57.1024,0,0.000885,0,0
0:3:52.858,453.897,57.7919,0,0.000885,0,0
0:3:55.459,459.056,58.4469,0,0.000885,0,0
0:3:58.054,464.221,59.1088,0,0.000885,0,0
0:4:0.659,469.732,59.8051,0,0.000885,0,0
0:4:3.253,474.247,60.3843,0,0.000885,0,0
0:4:5.856,479.585,61.06,0,0.000885,0,0
0:4:8.458,485.039,61.7563,0,0.000885,0,0
0:4:11.060,490.025,62.3907,0,0.000885,0,0
0:4:13.659,495.011,63.025,0,0.000885,0,0
0:4:16.259,500.407,63.7145,0,0.000885,0,0
0:4:18.858,505.451,64.3557,0,0.000885,0,0
0:4:21.458,510.554,65.0038,0,0.000885,0,0
0:4:24.053,515.246,65.6036,0,0.000885,0,0
0:4:26.654,519.997,66.2104,0,0.000885,0,0
0:4:29.250,525.566,66.9205,0,0.000885,0,0
0:4:31.861,530.904,67.5962,0,0.000885,0,0
0:4:34.454,535.477,68.1823,0,0.000885,0,0
0:4:37.059,541.051,68.8855,0,0.000885,0,0
0:4:39.658,546.21,69.5474,0,0.000885,0,0
0:4:42.262,551.313,70.1955,0,0.000885,0,0
0:4:44.861,556.241,70.8229,0,0.000885,0,0
0:4:47.464,561.637,71.5124,0,0.000885,0,0
0:4:50.062,566.445,72.1192,0,0.000885,0,0
0:4:52.662,570.845,72.6845,0,0.000885,0,0
0:4:55.270,576.592,73.4154,0,0.000885,0,0
0:4:57.863,581.872,74.0842,0,0.000885,0,0
0:5:0.471,587.21,74.7667,0,0.000885,0,0
0:5:3.063,591.903,75.3666,0,0.000885,0,0
0:5:5.673,596.894,76.0009,0,0.000885,0,0
0:5:8.254,602.587,76.7249,0,0.000885,0,0
0:5:10.880,607.458,77.3454,0,0.000885,0,0
0:5:13.462,612.333,77.9659,0,0.000885,0,0
0:5:16.067,617.32,78.6002,0,0.000885,0,0
0:5:18.655,623.013,79.3242,0,0.000885,0,0
0:5:21.273,627.826,79.9378,0,0.000885,0,0
0:5:23.866,632.408,80.5239,0,0.000885,0,0
0:5:26.472,637.924,81.2202,0,0.000885,0,0
0:5:29.064,642.973,81.8683,0,0.000885,0,0
0:5:31.671,648.137,82.5233,0,0.000885,0,0
0:5:34.270,652.834,83.1232,0,0.000885,0,0
0:5:36.875,657.825,83.7575,0,0.000885,0,0
0:5:39.461,663.341,84.4608,0,0.000885,0,0
0:5:42.068,667.976,85.0468,0,0.000885,0,0
0:5:44.668,673.79,85.7915,0,0.000885,0,0
0:5:47.267,678.603,86.4051,0,0.000885,0,0
0:5:49.869,683.594,87.0394,0,0.000885,0,0
0:5:52.465,689.167,87.7496,0,0.000885,0,0
0:5:55.067,694.336,88.4046,0,0.000885,0,0
0:5:57.671,699.029,89.0044,0,0.000885,0,0
0:6:0.280,703.962,89.6318,0,0.000885,0,0
0:6:2.868,709.714,90.3627,0,0.000885,0,0
0:6:5.475,714.82,91.0108,0,0.000885,0,0
0:6:8.060,719.691,91.6313,0,0.000885,0,0
0:6:10.670,724.446,92.2381,0,0.000885,0,0
0:6:13.261,729.731,92.9137,0,0.000885,0,0
0:6:15.872,735.304,93.6239,0,0.000885,0,0
0:6:18.460,739.824,94.1962,0,0.000885,0,0
0:6:21.076,744.993,94.8581,0,0.000885,0,0
0:6:23.667,749.979,95.4924,0,0.000885,0,0
0:6:26.273,755.499,96.1957,0,0.000885,0,0
0:6:28.861,760.548,96.8369,0,0.000885,0,0
0:6:31.467,765.183,97.4229,0,0.000885,0,0
0:6:34.061,770.703,98.1262,0,0.000885,0,0
0:6:36.670,775.458,98.7329,0,0.000885,0,0
0:6:39.268,781.032,99.4431,0,0.000885,0,0
0:6:41.872,785.787,100.05,0,0.000885,0,0
0:6:44.459,791.014,100.712,0,0.000885,0,0
0:6:47.076,795.827,101.325,0,0.000885,0,0
0:6:49.664,801.578,102.063,0,0.000885,0,0
0:6:52.273,806.271,102.656,0,0.000885,0,0
0:6:54.884,811.614,103.339,0,0.000885,0,0
0:6:57.477,816.489,103.959,0,0.000885,0,0
0:7:0.081,821.827,104.642,0,0.000885,0,0
0:7:2.669,826.466,105.228,0,0.000885,0,0
0:7:5.288,832.276,105.966,0,0.000885,0,0
0:7:7.875,836.915,106.558,0,0.000885,0,0
0:7:10.484,841.964,107.2,0,0.000885,0,0
0:7:13.073,847.422,107.896,0,0.000885,0,0
0:7:15.668,852.177,108.503,0,0.000885,0,0
0:7:18.273,857.341,109.158,0,0.000885,0,0
0:7:20.876,862.448,109.813,0,0.000885,0,0
0:7:23.475,867.79,110.488,0,0.000885,0,0
0:7:26.091,872.781,111.123,0,0.000885,0,0
0:7:28.672,877.945,111.785,0,0.000885,0,0
0:7:31.277,883.524,112.495,0,0.000885,0,0
0:7:33.877,887.514,113.005,0,0.000885,0,0
0:7:36.484,893.087,113.708,0,0.000885,0,0
0:7:39.073,898.607,114.412,0,0.000885,0,0
0:7:41.677,903.243,115.005,0,0.000885,0,0
0:7:44.264,908.354,115.653,0,0.000885,0,0
0:7:46.868,913.634,116.328,0,0.000885,0,0
0:7:49.479,918.74,116.976,0,0.000885,0,0
0:7:52.083,923.495,117.583,0,0.000885,0,0
0:7:54.670,929.189,118.307,0,0.000885,0,0
0:7:57.278,933.766,118.893,0,0.000885,0,0
0:7:59.879,939.344,119.603,0,0.000885,0,0
0:8:2.470,944.215,120.224,0,0.000885,0,0
0:8:5.076,949.148,120.851,0,0.000885,0,0
0:8:7.673,954.784,121.568,0,0.000885,0,0
0:8:10.289,960.242,122.265,0,0.000885,0,0
0:8:12.878,964.352,122.782,0,0.000885,0,0
0:8:15.473,969.868,123.485,0,0.000885,0,0
0:8:18.063,974.565,124.085,0,0.000885,0,0
0:8:20.691,979.378,124.699,0,0.000885,0,0
0:8:23.280,985.308,125.45,0,0.000885,0,0
0:8:25.882,990.588,126.126,0,0.000885,0,0
0:8:28.471,995.227,126.719,0,0.000885,0,0
0:8:31.088,1000.45,127.381,0,0.000885,0,0
0:8:33.676,1004.97,127.96,0,0.000885,0,0
0:8:36.281,1010.55,128.67,0,0.000885,0,0
0:8:38.868,1015.65,129.318,0,0.000885,0,0
0:8:41.483,1021.41,130.049,0,0.000885,0,0
0:8:44.069,1025.98,130.635,0,0.000885,0,0
0:8:46.685,1031.32,131.311,0,0.000885,0,0
0:8:49.283,1036.14,131.924,0,0.000885,0,0
0:8:51.888,1040.95,132.538,0,0.000885,0,0
0:8:54.476,1046.41,133.234,0,0.000885,0,0
0:8:57.090,1051.87,133.931,0,0.000885,0,0
0:8:59.677,1056.68,134.544,0,0.000885,0,0
0:9:2.273,1061.55,135.165,0,0.000885,0,0
0:9:4.883,1067.07,135.861,0,0.000885,0,0
0:9:7.474,1071.47,136.427,0,0.000885,0,0
0:9:10.076,1077.46,137.185,0,0.000885,0,0
0:9:12.669,1082.45,137.819,0,0.000885,0,0
0:9:15.286,1087.27,138.433,0,0.000885,0,0
0:9:17.870,1092.2,139.06,0,0.000885,0,0
0:9:20.499,1097.6,139.75,0,0.000885,0,0
0:9:23.086,1102.29,140.35,0,0.000885,0,0
0:9:25.694,1107.81,141.053,0,0.000885,0,0
0:9:28.286,1112.51,141.646,0,0.000885,0,0
0:9:30.898,1118.08,142.356,0,0.000885,0,0
0:9:33.486,1122.84,142.963,0,0.000885,0,0
0:9:36.089,1128.42,143.673,0,0.000885,0,0
0:9:38.670,1133.17,144.28,0,0.000885,0,0
0:9:41.283,1137.98,144.893,0,0.000885,0,0
0:9:43.882,1144.03,145.666,0,0.000885,0,0
0:9:46.489,1147.9,146.155,0,0.000885,0,0
0:9:49.086,1153.36,146.851,0,0.000885,0,0
0:9:51.691,1158.65,147.52,0,0.000885,0,0
0:9:54.278,1163.52,148.141,0,0.000885,0,0
0:9:56.880,1168.86,148.823,0,0.000885,0,0
0:9:59.494,1174.5,149.54,0,0.000885,0,0
0:10:2.095,1179.01,150.12,0,0.000885,0,0
0:10:4.690,1184.29,150.788,0,0.000885,0,0
0:10:6.465,1175.9,149.72,0,0.000885,0,0

File: DataFile2021-07-17_041835.csv
Test ID:,Date Tested:,Time:,Test Type:,Diameter Avg. (mm):,Cyl. Corr. Factor:,Height (mm):,Age (days):,Weight (kN):,Break Type:,Ramp Rate (MPa/s):,Load at Break (kN):,Stress at Break (MPa):
12,7/17/2021,04:18,Cylinder,100,1,200,0,3.6,3,0.25,1108.34,141.11
Sample Time,Load (kN),Stress (MPa),Long. Strain,Trans. Strain,Chan1 Deflection (mm),Chan2 Deflection (mm)
0:0:15.254,5.10211,0.648107,0,0.000885,0,0
0:0:17.640,9.91064,1.26174,0,0.000885,0,0
0:0:20.022,13.6071,1.73058,0,0.000885,0,0
0:0:22.434,18.6514,2.3718,0,0.000885,0,0
0:0:24.825,23.5177,2.99232,0,0.000885,0,0
0:0:27.239,27.917,3.55769,0,0.000885,0,0
0:0:29.629,33.8421,4.30922,0,0.000885,0,0
0:0:32.039,38.8285,4.94354,0,0.000885,0,0
0:0:34.432,42.9342,5.46754,0,0.000885,0,0
0:0:36.843,47.9162,6.10186,0,0.000885,0,0
0:0:39.232,52.2577,6.65344,0,0.000885,0,0
0:0:41.645,56.8305,7.2395,0,0.000885,0,0
0:0:44.040,61.8748,7.88071,0,0.000885,0,0
0:0:46.445,66.3319,8.44608,0,0.000885,0,0
0:0:48.842,71.3183,9.0804,0,0.000885,0,0
0:0:51.244,75.4819,9.61129,0,0.000885,0,0
0:0:53.639,80.3527,10.2318,0,0.000885,0,0
0:0:56.045,85.1612,10.8455,0,0.000885,0,0
0:0:58.445,89.9119,11.4453,0,0.000885,0,0
0:1:0.839,94.0176,11.9693,0,0.000885,0,0
0:1:3.245,99.5868,12.6795,0,0.000885,0,0
0:1:5.635,104.044,13.2448,0,0.000885,0,0
0:1:8.043,108.857,13.8585,0,0.000885,0,0
0:1:10.433,113.723,14.479,0,0.000885,0,0
0:1:12.845,118.123,15.0375,0,0.000885,0,0
0:1:15.234,122.815,15.6373,0,0.000885,0,0
0:1:17.647,128.091,16.3061,0,0.000885,0,0
0:1:20.037,131.965,16.8025,0,0.000885,0,0
0:1:22.448,137.183,17.4644,0,0.000885,0,0
0:1:24.839,141.582,18.0298,0,0.000885,0,0
0:1:27.253,146.685,18.6779,0,0.000885,0,0
0:1:29.640,151.084,19.2364,0,0.000885,0,0
0:1:32.054,155.95,19.8569,0,0.000885,0,0
0:1:34.444,160.292,20.4085,0,0.000885,0,0
0:1:36.855,164.749,20.9739,0,0.000885,0,0
0:1:39.244,169.615,21.5944,0,0.000885,0,0
0:1:41.653,175.189,22.3045,0,0.000885,0,0
0:1:44.046,178.885,22.7734,0,0.000885,0,0
0:1:46.448,183.987,23.4284,0,0.000885,0,0
0:1:48.851,188.912,24.0558,0,0.000885,0,0
0:1:51.250,194.249,24.7315,0,0.000885,0,0
0:1:53.632,198.182,25.2348,0,0.000885,0,0
0:1:56.008,202.87,25.8278,0,0.000885,0,0
0:1:58.402,208.208,26.5103,0,0.000885,0,0
0:2:0.806,211.611,26.9447,0,0.000885,0,0
0:2:3.203,217.358,27.6756,0,0.000885,0,0
0:2:5.589,221.521,28.2065,0,0.000885,0,0
0:2:7.982,226.041,28.7787,0,0.000885,0,0
0:2:10.356,230.907,29.3992,0,0.000885,0,0
0:2:12.752,236.419,30.1025,0,0.000885,0,0
0:2:15.120,240.231,30.5851,0,0.000885,0,0
0:2:17.516,245.337,31.2401,0,0.000885,0,0
0:2:19.907,250.377,31.8814,0,0.000885,0,0
0:2:22.308,254.834,32.4467,0,0.000885,0,0
0:2:24.707,258.94,32.9707,0,0.000885,0,0
0:2:27.106,264.278,33.6464,0,0.000885,0,0
0:2:29.504,269.206,34.2738,0,0.000885,0,0
0:2:31.906,273.663,34.8461,0,0.000885,0,0
0:2:34.290,278.063,35.4046,0,0.000885,0,0
0:2:36.691,282.871,36.0182,0,0.000885,0,0
0:2:39.089,287.622,36.6181,0,0.000885,0,0
0:2:41.500,292.315,37.2179,0,0.000885,0,0
0:2:43.904,296.536,37.7557,0,0.000885,0,0
0:2:46.305,301.696,38.4107,0,0.000885,0,0
0:2:48.705,306.389,39.0105,0,0.000885,0,0
0:2:51.098,311.843,39.7069,0,0.000885,0,0
0:2:53.504,315.481,40.1689,0,0.000885,0,0
0:2:55.896,321.17,40.8928,0,0.000885,0,0
0:2:58.285,325.098,41.3961,0,0.000885,0,0
0:3:0.661,329.675,41.9753,0,0.000885,0,0
0:3:3.054,334.248,42.5613,0,0.000885,0,0
0:3:5.416,338.999,43.1612,0,0.000885,0,0
0:3:7.814,343.985,43.7955,0,0.000885,0,0
0:3:10.202,348.265,44.3402,0,0.000885,0,0
0:3:12.606,353.838,45.0503,0,0.000885,0,0
0:3:14.996,358.353,45.6295,0,0.000885,0,0
0:3:17.388,362.873,46.2018,0,0.000885,0,0
0:3:19.756,367.561,46.8016,0,0.000885,0,0
0:3:22.154,372.547,47.4359,0,0.000885,0,0
0:3:24.524,376.769,47.9737,0,0.000885,0,0
0:3:26.917,381.11,48.5253,0,0.000885,0,0
0:3:29.310,386.448,49.201,0,0.000885,0,0
0:3:31.717,390.612,49.7319,0,0.000885,0,0
0:3:34.112,395.834,50.4007,0,0.000885,0,0
0:3:36.514,400.464,50.9867,0,0.000885,0,0
0:3:38.906,405.393,51.6142,0,0.000885,0,0
0:3:41.322,409.263,52.1106,0,0.000885,0,0
0:3:43.717,414.25,52.7449,0,0.000885,0,0
0:3:46.119,419.352,53.393,0,0.000885,0,0
0:3:48.513,424.218,54.0135,0,0.000885,0,0
0:3:50.916,428.853,54.6065,0,0.000885,0,0
0:3:53.305,433.074,55.1443,0,0.000885,0,0
0:3:55.682,437.652,55.7234,0,0.000885,0,0
0:3:58.070,442.109,56.2888,0,0.000885,0,0
0:4:0.449,446.802,56.8886,0,0.000885,0,0
0:4:2.831,452.135,57.5712,0,0.000885,0,0
0:4:5.215,456.592,58.1366,0,0.000885,0,0
0:4:7.618,461.343,58.7433,0,0.000885,0,0
0:4:10.014,465.92,59.3225,0,0.000885,0,0
0:4:12.422,470.729,59.9361,0,0.000885,0,0
0:4:14.808,475.186,60.5015,0,0.000885,0,0
0:4:17.215,480.346,61.1565,0,0.000885,0,0
0:4:19.617,485.096,61.7632,0,0.000885,0,0
0:4:22.023,489.967,62.3838,0,0.000885,0,0
0:4:24.421,493.837,62.8802,0,0.000885,0,0
0:4:26.828,498.703,63.4938,0,0.000885,0,0
0:4:29.217,503.868,64.1557,0,0.000885,0,0
0:4:31.628,508.325,64.7211,0,0.000885,0,0
0:4:34.022,513.018,65.3209,0,0.000885,0,0
0:4:36.426,518,65.9552,0,0.000885,0,0
0:4:38.815,522.871,66.5758,0,0.000885,0,0
0:4:41.228,527.27,67.1343,0,0.000885,0,0
0:4:43.605,531.843,67.7134,0,0.000885,0,0
0:4:46.023,536.536,68.3133,0,0.000885,0,0
0:4:48.399,541.46,68.9407,0,0.000885,0,0
0:4:50.786,545.917,69.506,0,0.000885,0,0
0:4:53.171,550.436,70.0852,0,0.000885,0,0
0:4:55.546,555.125,70.6782,0,0.000885,0,0
0:4:57.937,560.053,71.3056,0,0.000885,0,0
0:5:0.328,565.04,71.9399,0,0.000885,0,0
0:5:2.720,569.377,72.4984,0,0.000885,0,0
0:5:5.096,574.19,73.1051,0,0.000885,0,0
0:5:7.490,578.705,73.6843,0,0.000885,0,0
0:5:9.860,583.865,74.3393,0,0.000885,0,0
0:5:12.263,588.615,74.946,0,0.000885,0,0
0:5:14.644,592.258,75.408,0,0.000885,0,0
0:5:17.047,597.596,76.0905,0,0.000885,0,0
0:5:19.435,602.351,76.6973,0,0.000885,0,0
0:5:21.843,607.107,77.2971,0,0.000885,0,0
0:5:24.222,611.804,77.897,0,0.000885,0,0
0:5:26.643,616.559,78.5037,0,0.000885,0,0
0:5:29.022,621.314,79.1104,0,0.000885,0,0
0:5:31.437,626.243,79.7379,0,0.000885,0,0
0:5:33.823,630.002,80.2136,0,0.000885,0,0
0:5:36.239,635.695,80.9376,0,0.000885,0,0
0:5:38.622,640.215,81.5167,0,0.000885,0,0
0:5:41.038,644.97,82.1166,0,0.000885,0,0
0:5:43.426,649.018,82.6337,0,0.000885,0,0
0:5:45.834,654.124,83.2887,0,0.000885,0,0
0:5:48.223,659.115,83.923,0,0.000885,0,0
0:5:50.640,663.813,84.5159,0,0.000885,0,0
0:5:53.034,668.39,85.102,0,0.000885,0,0
0:5:55.430,672.794,85.6605,0,0.000885,0,0
0:5:57.835,677.78,86.2948,0,0.000885,0,0
0:6:0.228,682.593,86.9084,0,0.000885,0,0
0:6:2.634,687.055,87.4807,0,0.000885,0,0
0:6:5.033,691.81,88.0874,0,0.000885,0,0
0:6:7.435,696.271,88.6528,0,0.000885,0,0
0:6:9.826,701.262,89.2871,0,0.000885,0,0
0:6:12.229,706.133,89.9076,0,0.000885,0,0
0:6:14.626,710.652,90.4799,0,0.000885,0,0
0:6:17.040,715.465,91.0935,0,0.000885,0,0
0:6:19.433,720.163,91.6934,0,0.000885,0,0
0:6:21.842,724.74,92.2794,0,0.000885,0,0
0:6:24.234,729.379,92.8655,0,0.000885,0,0
0:6:26.638,734.424,93.5067,0,0.000885,0,0
0:6:29.033,738.654,94.0514,0,0.000885,0,0
0:6:31.449,743.467,94.6581,0,0.000885,0,0
0:6:33.836,747.866,95.2235,0,0.000885,0,0
0:6:36.243,753.444,95.9337,0,0.000885,0,0
0:6:38.628,757.728,96.4783,0,0.000885,0,0
0:6:41.044,762.661,97.1058,0,0.000885,0,0
0:6:43.430,767.18,97.678,0,0.000885,0,0
0:6:45.825,771.993,98.2917,0,0.000885,0,0
0:6:48.234,776.335,98.8432,0,0.000885,0,0
0:6:50.639,781.09,99.45,0,0.000885,0,0
0:6:53.031,786.374,100.126,0,0.000885,0,0
0:6:55.436,790.778,100.684,0,0.000885,0,0
0:6:57.841,795.649,101.305,0,0.000885,0,0
0:7:0.229,800.111,101.87,0,0.000885,0,0
0:7:2.634,804.688,102.456,0,0.000885,0,0
0:7:5.026,809.679,103.09,0,0.000885,0,0
0:7:7.433,814.02,103.642,0,0.000885,0,0
0:7:9.834,819.011,104.276,0,0.000885,0,0
0:7:12.244,823.944,104.911,0,0.000885,0,0
0:7:14.635,828.695,105.51,0,0.000885,0,0
0:7:17.039,833.099,106.076,0,0.000885,0,0
0:7:19.434,837.912,106.689,0,0.000885,0,0
0:7:21.850,842.782,107.31,0,0.000885,0,0
0:7:24.233,848.009,107.972,0,0.000885,0,0
0:7:26.649,852.057,108.489,0,0.000885,0,0
0:7:29.034,856.932,109.11,0,0.000885,0,0
0:7:31.449,861.509,109.689,0,0.000885,0,0
0:7:33.840,866.442,110.316,0,0.000885,0,0
0:7:36.254,870.726,110.861,0,0.000885,0,0
0:7:38.643,875.712,111.502,0,0.000885,0,0
0:7:41.049,880.294,112.081,0,0.000885,0,0
0:7:43.439,885.223,112.709,0,0.000885,0,0
0:7:45.851,889.333,113.233,0,0.000885,0,0
0:7:48.237,894.324,113.867,0,0.000885,0,0
0:7:50.646,899.252,114.494,0,0.000885,0,0
0:7:53.039,903.83,115.08,0,0.000885,0,0
0:7:55.447,909.056,115.742,0,0.000885,0,0
0:7:57.843,913.398,116.301,0,0.000885,0,0
0:8:0.247,918.037,116.887,0,0.000885,0,0
0:8:2.651,922.205,117.418,0,0.000885,0,0
0:8:5.047,926.84,118.011,0,0.000885,0,0
0:8:7.451,932.418,118.721,0,0.000885,0,0
0:8:9.839,936.938,119.293,0,0.000885,0,0
0:8:12.247,941.577,119.886,0,0.000885,0,0
0:8:14.640,946.212,120.472,0,0.000885,0,0
0:8:17.055,951.145,121.106,0,0.000885,0,0
0:8:19.431,955.838,121.699,0,0.000885,0,0
0:8:21.853,960.184,122.251,0,0.000885,0,0
0:8:24.245,965.233,122.899,0,0.000885,0,0
0:8:26.651,969.752,123.471,0,0.000885,0,0
0:8:29.041,975.21,124.168,0,0.000885,0,0
0:8:31.461,979.258,124.685,0,0.000885,0,0
0:8:33.843,983.782,125.257,0,0.000885,0,0
0:8:36.257,989.062,125.933,0,0.000885,0,0
0:8:38.637,992.879,126.415,0,0.000885,0,0
0:8:41.051,998.337,127.112,0,0.000885,0,0
0:8:43.437,1003.5,127.767,0,0.000885,0,0
0:8:45.855,1007.9,128.332,0,0.000885,0,0
0:8:48.246,1012.25,128.884,0,0.000885,0,0
0:8:50.655,1016.89,129.477,0,0.000885,0,0
0:8:53.052,1022.29,130.159,0,0.000885,0,0
0:8:55.448,1025.81,130.607,0,0.000885,0,0
0:8:57.849,1030.8,131.249,0,0.000885,0,0
0:9:0.247,1036.08,131.917,0,0.000885,0,0
0:9:2.647,1040.48,132.476,0,0.000885,0,0
0:9:5.036,1045.12,133.069,0,0.000885,0,0
0:9:7.439,1049.99,133.689,0,0.000885,0,0
0:9:9.846,1053.69,134.158,0,0.000885,0,0
0:9:12.253,1059.74,134.93,0,0.000885,0,0
0:9:14.650,1064.37,135.523,0,0.000885,0,0
0:9:17.061,1068.84,136.089,0,0.000885,0,0
0:9:19.439,1072.83,136.599,0,0.000885,0,0
0:9:21.845,1078.34,137.302,0,0.000885,0,0
0:9:24.249,1082.39,137.812,0,0.000885,0,0
0:9:26.653,1087.91,138.516,0,0.000885,0,0
0:9:29.042,1093.02,139.171,0,0.000885,0,0
0:9:31.461,1097.13,139.688,0,0.000885,0,0
0:9:33.852,1101.7,140.274,0,0.000885,0,0
0:9:36.256,1106.75,140.915,0,0.000885,0,0
0:9:38.648,1002.27,127.615,0,0.000885,0,0
0:9:38.676,1002.27,127.615,0,0.000885,0,0