Folder: Experiment-Files (part 90)

File: DataFile2021-07-25_070651.csv
Test ID:,Date Tested:,Time:,Test Type:,Diameter Avg. (mm):,Cyl. Corr. Factor:,Height (mm):,Age (days):,Weight (kN):,Break Type:,Ramp Rate (MPa/s):,Load at Break (kN):,Stress at Break (MPa):
12,7/25/2021,07:06,Cylinder,100,1,200,0,3.5,3,0.32,212.55,27.06
Sample Time,Load (kN),Stress (MPa),Long. Strain,Trans. Strain,Chan1 Deflection (mm),Chan2 Deflection (mm)
0:0:15.633,5.57362,0.71016,0,0.000885,0,0
0:0:16.033,8.97206,1.14453,0,0.000885,0,0
0:0:16.444,10.1464,1.28932,0,0.000885,0,0
0:0:16.848,10.0307,1.27553,0,0.000885,0,0
0:0:17.243,9.91064,1.26174,0,0.000885,0,0
0:0:17.639,9.55923,1.22037,0,0.000885,0,0
0:0:18.049,11.4364,1.45479,0,0.000885,0,0
0:0:18.446,12.6107,1.60648,0,0.000885,0,0
0:0:18.843,13.9007,1.77195,0,0.000885,0,0
0:0:19.237,14.5457,1.85469,0,0.000885,0,0
0:0:19.648,16.1871,2.06153,0,0.000885,0,0
0:0:20.046,17.2413,2.19253,0,0.000885,0,0
0:0:20.453,17.8285,2.26838,0,0.000885,0,0
0:0:20.848,18.945,2.41317,0,0.000885,0,0
0:0:21.252,20.1771,2.57174,0,0.000885,0,0
0:0:21.659,21.347,2.71653,0,0.000885,0,0
0:0:22.062,22.6993,2.8889,0,0.000885,0,0
0:0:22.464,24.0471,3.06127,0,0.000885,0,0
0:0:22.865,25.1013,3.19917,0,0.000885,0,0
0:0:23.262,26.0977,3.32327,0,0.000885,0,0
0:0:23.663,27.3299,3.48185,0,0.000885,0,0
0:0:24.061,28.6199,3.64733,0,0.000885,0,0
0:0:24.456,30.1456,3.84038,0,0.000885,0,0
0:0:24.855,31.142,3.96449,0,0.000885,0,0
0:0:25.254,32.3742,4.12306,0,0.000885,0,0
0:0:25.654,33.6063,4.28164,0,0.000885,0,0
0:0:26.052,34.3091,4.37128,0,0.000885,0,0
0:0:26.457,35.4835,4.51607,0,0.000885,0,0
0:0:26.862,36.422,4.64017,0,0.000885,0,0
0:0:27.265,37.5341,4.77807,0,0.000885,0,0
0:0:27.667,38.4727,4.90217,0,0.000885,0,0
0:0:28.065,39.7048,5.05386,0,0.000885,0,0
0:0:28.462,40.6434,5.17796,0,0.000885,0,0
0:0:28.860,41.2306,5.24691,0,0.000885,0,0
0:0:29.261,42.872,5.46065,0,0.000885,0,0
0:0:29.659,44.3977,5.6537,0,0.000885,0,0
0:0:30.055,45.8078,5.83296,0,0.000885,0,0
0:0:30.451,46.1014,5.86744,0,0.000885,0,0
0:0:30.851,47.8584,6.09497,0,0.000885,0,0
0:0:31.252,48.152,6.12944,0,0.000885,0,0
0:0:31.658,49.8512,6.35007,0,0.000885,0,0
0:0:32.062,50.2649,6.39833,0,0.000885,0,0
0:0:32.464,51.7862,6.59139,0,0.000885,0,0
0:0:32.864,52.3734,6.66723,0,0.000885,0,0
0:0:33.266,53.432,6.80513,0,0.000885,0,0
0:0:33.662,54.1927,6.90165,0,0.000885,0,0
0:0:34.058,55.8919,7.11539,0,0.000885,0,0
0:0:34.456,57.0662,7.26707,0,0.000885,0,0
0:0:34.856,57.947,7.37739,0,0.000885,0,0
0:0:35.256,59.6462,7.59113,0,0.000885,0,0
0:0:35.651,60.8205,7.74281,0,0.000885,0,0
0:0:36.055,61.6435,7.84623,0,0.000885,0,0
0:0:36.461,62.4619,7.94966,0,0.000885,0,0
0:0:36.863,63.7519,8.11513,0,0.000885,0,0
0:0:37.266,64.7483,8.24613,0,0.000885,0,0
0:0:37.663,65.9226,8.39092,0,0.000885,0,0
0:0:38.061,66.6877,8.48745,0,0.000885,0,0
0:0:38.463,67.7998,8.63224,0,0.000885,0,0
0:0:38.860,69.7348,8.88045,0,0.000885,0,0
0:0:39.258,70.789,9.01145,0,0.000885,0,0
0:0:39.655,71.4384,9.09418,0,0.000885,0,0
0:0:40.053,72.5505,9.23897,0,0.000885,0,0
0:0:40.453,73.6047,9.36998,0,0.000885,0,0
0:0:40.850,74.4276,9.4734,0,0.000885,0,0
0:0:41.256,75.5397,9.61819,0,0.000885,0,0
0:0:41.661,76.4204,9.7285,0,0.000885,0,0
0:0:42.064,77.6526,9.88708,0,0.000885,0,0
0:0:42.469,79.1205,10.0732,0,0.000885,0,0
0:0:42.864,80.2326,10.218,0,0.000885,0,0
0:0:43.260,81.2912,10.349,0,0.000885,0,0
0:0:43.660,81.9941,10.4387,0,0.000885,0,0
0:0:44.060,83.2262,10.5972,0,0.000885,0,0
0:0:44.456,84.6897,10.7834,0,0.000885,0,0
0:0:44.852,85.6283,10.9006,0,0.000885,0,0
0:0:45.253,86.8026,11.0523,0,0.000885,0,0
0:0:45.652,87.7412,11.1695,0,0.000885,0,0
0:0:46.050,89.0312,11.335,0,0.000885,0,0
0:0:46.457,89.9697,11.4522,0,0.000885,0,0
0:0:46.859,90.7927,11.5625,0,0.000885,0,0
0:0:47.263,91.9625,11.7073,0,0.000885,0,0
0:0:47.665,92.9011,11.8314,0,0.000885,0,0
0:0:48.063,94.4847,12.0314,0,0.000885,0,0
0:0:48.459,95.2498,12.1279,0,0.000885,0,0
0:0:48.857,96.3618,12.2727,0,0.000885,0,0
0:0:49.260,97.8876,12.4657,0,0.000885,0,0
0:0:49.656,99.0619,12.6105,0,0.000885,0,0
0:0:50.053,100.232,12.7622,0,0.000885,0,0
0:0:50.449,101.522,12.9277,0,0.000885,0,0
0:0:50.850,102.638,13.0656,0,0.000885,0,0
0:0:51.249,103.11,13.1276,0,0.000885,0,0
0:0:51.656,104.106,13.2517,0,0.000885,0,0
0:0:52.060,105.045,13.3758,0,0.000885,0,0
0:0:52.464,106.215,13.5206,0,0.000885,0,0
0:0:52.865,107.211,13.6516,0,0.000885,0,0
0:0:53.263,108.505,13.8171,0,0.000885,0,0
0:0:53.659,110.027,14.0101,0,0.000885,0,0
0:0:54.055,110.792,14.1067,0,0.000885,0,0
0:0:54.456,111.73,14.2239,0,0.000885,0,0
0:0:54.855,113.02,14.3894,0,0.000885,0,0
0:0:55.251,114.546,14.5824,0,0.000885,0,0
0:0:55.647,115.543,14.7134,0,0.000885,0,0
0:0:56.052,116.597,14.8444,0,0.000885,0,0
0:0:56.458,118.065,15.0306,0,0.000885,0,0
0:0:56.862,118.941,15.1409,0,0.000885,0,0
0:0:57.265,119.528,15.2167,0,0.000885,0,0
0:0:57.662,120.587,15.3546,0,0.000885,0,0
0:0:58.063,122.464,15.589,0,0.000885,0,0
0:0:58.462,123.047,15.6649,0,0.000885,0,0
0:0:58.858,124.163,15.8097,0,0.000885,0,0
0:0:59.254,125.102,15.9269,0,0.000885,0,0
0:0:59.655,125.631,15.9958,0,0.000885,0,0
0:1:0.055,127.095,16.182,0,0.000885,0,0
0:1:0.453,128.327,16.3406,0,0.000885,0,0
0:1:0.850,129.968,16.5474,0,0.000885,0,0
0:1:1.255,130.791,16.6508,0,0.000885,0,0
0:1:1.661,131.73,16.7749,0,0.000885,0,0
0:1:2.062,133.02,16.9335,0,0.000885,0,0
0:1:2.465,134.194,17.0852,0,0.000885,0,0
0:1:2.862,134.955,17.1817,0,0.000885,0,0
0:1:3.260,135.835,17.2921,0,0.000885,0,0
0:1:3.661,136.832,17.4231,0,0.000885,0,0
0:1:4.059,138.415,17.623,0,0.000885,0,0
0:1:4.455,139.59,17.7747,0,0.000885,0,0
0:1:4.852,140.702,17.9126,0,0.000885,0,0
0:1:5.253,141.818,18.0574,0,0.000885,0,0
0:1:5.651,142.872,18.1884,0,0.000885,0,0
0:1:6.057,143.869,18.3194,0,0.000885,0,0
0:1:6.463,145.452,18.5193,0,0.000885,0,0
0:1:6.867,145.982,18.5883,0,0.000885,0,0
0:1:7.270,147.33,18.7606,0,0.000885,0,0
0:1:7.674,148.268,18.8778,0,0.000885,0,0
0:1:8.070,149.385,19.0226,0,0.000885,0,0
0:1:8.467,150.555,19.1674,0,0.000885,0,0
0:1:8.868,151.907,19.3398,0,0.000885,0,0
0:1:9.266,152.432,19.4087,0,0.000885,0,0
0:1:9.663,153.664,19.5673,0,0.000885,0,0
0:1:10.059,154.429,19.6638,0,0.000885,0,0
0:1:10.459,155.835,19.8431,0,0.000885,0,0
0:1:10.859,156.657,19.9465,0,0.000885,0,0
0:1:11.266,158.121,20.1327,0,0.000885,0,0
0:1:11.670,159.469,20.3051,0,0.000885,0,0
0:1:12.072,159.998,20.374,0,0.000885,0,0
0:1:12.474,161.052,20.505,0,0.000885,0,0
0:1:12.873,162.52,20.6912,0,0.000885,0,0
0:1:13.270,163.459,20.8153,0,0.000885,0,0
0:1:13.666,164.807,20.9807,0,0.000885,0,0
0:1:14.066,166.039,21.1393,0,0.000885,0,0
0:1:14.466,167.213,21.291,0,0.000885,0,0
0:1:14.863,168.267,21.422,0,0.000885,0,0
0:1:15.259,169.09,21.5323,0,0.000885,0,0
0:1:15.659,170.26,21.6771,0,0.000885,0,0
0:1:16.061,171.786,21.8702,0,0.000885,0,0
0:1:16.466,172.782,22.0012,0,0.000885,0,0
0:1:16.871,173.783,22.1253,0,0.000885,0,0
0:1:17.273,174.895,22.2701,0,0.000885,0,0
0:1:17.672,176.012,22.408,0,0.000885,0,0
0:1:18.073,176.772,22.5045,0,0.000885,0,0
0:1:18.470,177.947,22.6562,0,0.000885,0,0
0:1:18.866,178.765,22.7596,0,0.000885,0,0
0:1:19.265,179.588,22.863,0,0.000885,0,0
0:1:19.665,180.469,22.9802,0,0.000885,0,0
0:1:20.066,181.701,23.1319,0,0.000885,0,0
0:1:20.462,182.991,23.2974,0,0.000885,0,0
0:1:20.858,184.103,23.4422,0,0.000885,0,0
0:1:21.263,184.868,23.5387,0,0.000885,0,0
0:1:21.669,186.332,23.7249,0,0.000885,0,0
0:1:22.073,187.212,23.8352,0,0.000885,0,0
0:1:22.477,188.56,24.0075,0,0.000885,0,0
0:1:22.873,189.441,24.1179,0,0.000885,0,0
0:1:23.275,190.437,24.2489,0,0.000885,0,0
0:1:23.673,191.434,24.373,0,0.000885,0,0
0:1:24.069,192.666,24.5315,0,0.000885,0,0
0:1:24.463,193.547,24.6419,0,0.000885,0,0
0:1:24.859,194.894,24.8142,0,0.000885,0,0
0:1:25.256,195.659,24.9108,0,0.000885,0,0
0:1:25.649,196.184,24.9797,0,0.000885,0,0
0:1:26.039,197.417,25.1383,0,0.000885,0,0
0:1:26.442,198.764,25.3107,0,0.000885,0,0
0:1:26.844,199.587,25.4141,0,0.000885,0,0
0:1:27.245,200.819,25.5658,0,0.000885,0,0
0:1:27.646,201.58,25.6692,0,0.000885,0,0
0:1:28.050,202.932,25.8347,0,0.000885,0,0
0:1:28.449,204.28,26.007,0,0.000885,0,0
0:1:28.855,205.392,26.1518,0,0.000885,0,0
0:1:29.257,206.624,26.3104,0,0.000885,0,0
0:1:29.651,207.741,26.4483,0,0.000885,0,0
0:1:30.045,208.622,26.5655,0,0.000885,0,0
0:1:30.443,209.089,26.6207,0,0.000885,0,0
0:1:30.837,209.969,26.731,0,0.000885,0,0
0:1:31.238,209.912,26.7241,0,0.000885,0,0
0:1:31.639,208.737,26.5793,0,0.000885,0,0
0:1:32.038,208.501,26.5448,0,0.000885,0,0
0:1:32.436,209.912,26.7241,0,0.000885,0,0
0:1:32.831,211.726,26.9585,0,0.000885,0,0
0:1:33.243,212.02,26.993,0,0.000885,0,0
0:1:33.639,212.665,27.0757,0,0.000885,0,0
0:1:34.035,212.492,27.055,0,0.000885,0,0
0:1:34.438,211.847,26.9723,0,0.000885,0,0
0:1:34.840,210.557,26.8068,0,0.000885,0,0
0:1:35.242,208.501,26.5448,0,0.000885,0,0
0:1:35.638,206.037,26.2346,0,0.000885,0,0
0:1:36.034,200.29,25.5037,0,0.000885,0,0
0:1:36.437,190.731,24.2833,0,0.000885,0,0
0:1:36.840,173.957,22.146,0,0.000885,0,0
0:1:37.243,163.868,20.8635,0,0.000885,0,0
0:1:37.643,158.65,20.2016,0,0.000885,0,0
0:1:38.040,153.428,19.5328,0,0.000885,0,0
0:1:38.345,149.442,19.0295,0,0.000885,0,0

File: DataFile2021-07-28_090041.csv
Test ID:,Date Tested:,Time:,Test Type:,Diameter Avg. (mm):,Cyl. Corr. Factor:,Height (mm):,Age (days):,Weight (kN):,Break Type:,Ramp Rate (MPa/s):,Load at Break (kN):,Stress at Break (MPa):
12,7/28/2021,09:00,Cylinder,150,1,300,0,13.69,3,0.35,2187.44,123.78
Sample Time,Load (kN),Stress (MPa),Long. Strain,Trans. Strain,Chan1 Deflection (mm),Chan2 Deflection (mm)
0:0:8.333,7.3885,0.42058,0,0.000885,0,0
0:0:9.830,12.2015,0.689476,0,0.000885,0,0
0:0:11.341,22.637,1.28242,0,0.000885,0,0
0:0:12.842,32.3742,1.83401,0,0.000885,0,0
0:0:14.355,44.5178,2.51659,0,0.000885,0,0
0:0:15.857,52.6669,2.97854,0,0.000885,0,0
0:0:17.353,61.1719,3.46117,0,0.000885,0,0
0:0:18.858,70.144,3.97138,0,0.000885,0,0
0:0:20.372,79.8812,4.52296,0,0.000885,0,0
0:0:21.868,89.6183,5.07454,0,0.000885,0,0
0:0:23.360,97.8876,5.53649,0,0.000885,0,0
0:0:24.868,107.505,6.08118,0,0.000885,0,0
0:0:26.367,116.775,6.60518,0,0.000885,0,0
0:0:27.859,125.453,7.1016,0,0.000885,0,0
0:0:29.370,135.715,7.68076,0,0.000885,0,0
0:0:30.868,145.217,8.21855,0,0.000885,0,0
0:0:32.361,154.015,8.71497,0,0.000885,0,0
0:0:33.861,163.459,9.25276,0,0.000885,0,0
0:0:35.371,172.493,9.76298,0,0.000885,0,0
0:0:36.866,182.052,10.3008,0,0.000885,0,0
0:0:38.359,191.496,10.8386,0,0.000885,0,0
0:0:39.859,200.468,11.3419,0,0.000885,0,0
0:0:41.350,209.089,11.8314,0,0.000885,0,0
0:0:42.849,218.59,12.3692,0,0.000885,0,0
0:0:44.347,227.74,12.8863,0,0.000885,0,0
0:0:45.855,237.419,13.4379,0,0.000885,0,0
0:0:47.344,246.271,13.9343,0,0.000885,0,0
0:0:48.857,256.302,14.5066,0,0.000885,0,0
0:0:50.356,265.452,15.0237,0,0.000885,0,0
0:0:51.847,274.602,15.5408,0,0.000885,0,0
0:0:53.339,284.161,16.0786,0,0.000885,0,0
0:0:54.842,293.076,16.5819,0,0.000885,0,0
0:0:56.338,302.461,17.1128,0,0.000885,0,0
0:0:57.851,311.785,17.6437,0,0.000885,0,0
0:0:59.354,320.641,18.147,0,0.000885,0,0
0:1:0.847,329.849,18.6641,0,0.000885,0,0
0:1:2.342,339.057,19.1881,0,0.000885,0,0
0:1:3.843,348.265,19.7052,0,0.000885,0,0
0:1:5.349,358.353,20.2775,0,0.000885,0,0
0:1:6.841,367.33,20.7877,0,0.000885,0,0
0:1:8.343,376.711,21.3186,0,0.000885,0,0
0:1:9.843,385.861,21.8357,0,0.000885,0,0
0:1:11.342,395.011,22.3528,0,0.000885,0,0
0:1:12.835,404.397,22.8837,0,0.000885,0,0
0:1:14.353,413.191,23.3801,0,0.000885,0,0
0:1:15.850,422.87,23.9317,0,0.000885,0,0
0:1:17.353,432.136,24.4557,0,0.000885,0,0
0:1:18.843,441.344,24.9728,0,0.000885,0,0
0:1:20.351,450.2,25.4761,0,0.000885,0,0
0:1:21.855,460.818,26.076,0,0.000885,0,0
0:1:23.346,469.617,26.5724,0,0.000885,0,0
0:1:24.850,478.531,27.0826,0,0.000885,0,0
0:1:26.345,487.97,27.6135,0,0.000885,0,0
0:1:27.838,497.413,28.1513,0,0.000885,0,0
0:1:29.342,505.918,28.627,0,0.000885,0,0
0:1:30.837,515.126,29.151,0,0.000885,0,0
0:1:32.348,524.334,29.6681,0,0.000885,0,0
0:1:33.849,534.307,30.2335,0,0.000885,0,0
0:1:35.357,542.87,30.723,0,0.000885,0,0
0:1:36.857,552.545,31.2677,0,0.000885,0,0
0:1:38.348,562.34,31.8193,0,0.000885,0,0
0:1:39.859,571.374,32.3364,0,0.000885,0,0
0:1:41.347,580.698,32.8604,0,0.000885,0,0
0:1:42.829,589.674,33.3706,0,0.000885,0,0
0:1:44.336,599.594,33.9291,0,0.000885,0,0
0:1:45.843,608.748,34.4462,0,0.000885,0,0
0:1:47.343,617.493,34.9426,0,0.000885,0,0
0:1:48.843,627.124,35.4873,0,0.000885,0,0
0:1:50.349,636.278,36.0044,0,0.000885,0,0
0:1:51.859,645.201,36.5077,0,0.000885,0,0
0:1:53.347,654.067,37.0111,0,0.000885,0,0
0:1:54.858,664.867,37.6247,0,0.000885,0,0
0:1:56.351,673.906,38.1349,0,0.000885,0,0
0:1:57.851,682.593,38.6244,0,0.000885,0,0
0:1:59.350,691.925,39.1553,0,0.000885,0,0
0:2:0.850,701.026,39.6724,0,0.000885,0,0
0:2:2.358,710.532,40.2102,0,0.000885,0,0
0:2:3.854,719.162,40.6929,0,0.000885,0,0
0:2:5.360,729.081,41.2582,0,0.000885,0,0
0:2:6.846,737.889,41.7547,0,0.000885,0,0
0:2:8.356,747.337,42.2924,0,0.000885,0,0
0:2:9.870,756.905,42.8302,0,0.000885,0,0
0:2:11.364,767.002,43.4025,0,0.000885,0,0
0:2:12.863,775.748,43.8989,0,0.000885,0,0
0:2:14.366,784.493,44.3953,0,0.000885,0,0
0:2:15.869,794.355,44.9538,0,0.000885,0,0
0:2:17.356,803.104,45.4433,0,0.000885,0,0
0:2:18.854,811.907,45.9467,0,0.000885,0,0
0:2:20.370,821.711,46.4982,0,0.000885,0,0
0:2:21.857,830.634,47.0016,0,0.000885,0,0
0:2:23.354,839.731,47.5187,0,0.000885,0,0
0:2:24.870,849.886,48.0909,0,0.000885,0,0
0:2:26.370,859.276,48.6218,0,0.000885,0,0
0:2:27.857,868.551,49.1527,0,0.000885,0,0
0:2:29.373,877.883,49.6767,0,0.000885,0,0
0:2:30.872,886.571,50.1731,0,0.000885,0,0
0:2:32.361,896.317,50.7178,0,0.000885,0,0
0:2:33.850,905.649,51.2487,0,0.000885,0,0
0:2:35.363,914.163,51.7314,0,0.000885,0,0
0:2:36.849,923.962,52.2829,0,0.000885,0,0
0:2:38.347,933.53,52.8276,0,0.000885,0,0
0:2:39.863,942.338,53.3241,0,0.000885,0,0
0:2:41.359,951.261,53.8274,0,0.000885,0,0
0:2:42.858,960.709,54.3652,0,0.000885,0,0
0:2:44.374,970.749,54.9305,0,0.000885,0,0
0:2:45.873,979.961,55.4545,0,0.000885,0,0
0:2:47.359,988.942,55.9647,0,0.000885,0,0
0:2:48.860,998.043,56.475,0,0.000885,0,0
0:2:50.376,1007.55,57.0127,0,0.000885,0,0
0:2:51.863,1017.12,57.5574,0,0.000885,0,0
0:2:53.349,1025.81,58.047,0,0.000885,0,0
0:2:54.853,1035.26,58.5848,0,0.000885,0,0
0:2:56.348,1044.24,59.095,0,0.000885,0,0
0:2:57.864,1053.28,59.6052,0,0.000885,0,0
0:2:59.372,1062.79,60.143,0,0.000885,0,0
0:3:0.865,1072.36,60.6808,0,0.000885,0,0
0:3:2.353,1081.04,61.1772,0,0.000885,0,0
0:3:3.856,1091.2,61.7494,0,0.000885,0,0
0:3:5.374,1100.29,62.2666,0,0.000885,0,0
0:3:6.862,1109.69,62.7974,0,0.000885,0,0
0:3:8.370,1118.73,63.3077,0,0.000885,0,0
0:3:9.875,1127.77,63.8179,0,0.000885,0,0
0:3:11.371,1138.16,64.4039,0,0.000885,0,0
0:3:12.855,1146.32,64.8659,0,0.000885,0,0
0:3:14.360,1155.59,65.3899,0,0.000885,0,0
0:3:15.855,1164.16,65.8794,0,0.000885,0,0
0:3:17.352,1173.97,66.431,0,0.000885,0,0
0:3:18.850,1183.12,66.9481,0,0.000885,0,0
0:3:20.357,1193.57,67.541,0,0.000885,0,0
0:3:21.857,1202.49,68.0444,0,0.000885,0,0
0:3:23.369,1211.47,68.5546,0,0.000885,0,0
0:3:24.877,1220.92,69.0924,0,0.000885,0,0
0:3:26.376,1230.55,69.637,0,0.000885,0,0
0:3:27.865,1239.24,70.1266,0,0.000885,0,0
0:3:29.367,1248.45,70.6506,0,0.000885,0,0
0:3:30.872,1257.73,71.1746,0,0.000885,0,0
0:3:32.361,1267.36,71.7193,0,0.000885,0,0
0:3:33.859,1275.57,72.1812,0,0.000885,0,0
0:3:35.375,1286.14,72.7811,0,0.000885,0,0
0:3:36.875,1294.82,73.2706,0,0.000885,0,0
0:3:38.372,1304.92,73.8429,0,0.000885,0,0
0:3:39.881,1313.37,74.3186,0,0.000885,0,0
0:3:41.379,1322.88,74.8633,0,0.000885,0,0
0:3:42.870,1332.57,75.408,0,0.000885,0,0
0:3:44.376,1340.96,75.8837,0,0.000885,0,0
0:3:45.874,1349.71,76.3801,0,0.000885,0,0
0:3:47.361,1359.98,76.9593,0,0.000885,0,0
0:3:48.870,1368.9,77.4626,0,0.000885,0,0
0:3:50.375,1377.89,77.9728,0,0.000885,0,0
0:3:51.875,1387.86,78.5382,0,0.000885,0,0
0:3:53.365,1397.61,79.0898,0,0.000885,0,0
0:3:54.876,1407.29,79.6344,0,0.000885,0,0
0:3:56.378,1416.1,80.1378,0,0.000885,0,0
0:3:57.871,1424.49,80.6066,0,0.000885,0,0
0:3:59.373,1433.76,81.1375,0,0.000885,0,0
0:4:0.875,1443.45,81.6822,0,0.000885,0,0
0:4:2.362,1452.49,82.1924,0,0.000885,0,0
0:4:3.851,1461.82,82.7233,0,0.000885,0,0
0:4:5.365,1470.51,83.2128,0,0.000885,0,0
0:4:6.854,1479.73,83.7368,0,0.000885,0,0
0:4:8.344,1489.33,84.2815,0,0.000885,0,0
0:4:9.855,1498.75,84.8124,0,0.000885,0,0
0:4:11.366,1508.64,85.3709,0,0.000885,0,0
0:4:12.866,1518.12,85.9087,0,0.000885,0,0
0:4:14.373,1526.9,86.4051,0,0.000885,0,0
0:4:15.869,1535.9,86.9153,0,0.000885,0,0
0:4:17.358,1545.62,87.4669,0,0.000885,0,0
0:4:18.853,1554.92,87.9909,0,0.000885,0,0
0:4:20.364,1563.35,88.4666,0,0.000885,0,0
0:4:21.854,1573.23,89.0251,0,0.000885,0,0
0:4:23.345,1582.25,89.5353,0,0.000885,0,0
0:4:24.853,1591.02,90.0317,0,0.000885,0,0
0:4:26.368,1601.8,90.6454,0,0.000885,0,0
0:4:27.868,1610.68,91.1487,0,0.000885,0,0
0:4:29.368,1619.58,91.652,0,0.000885,0,0
0:4:30.874,1629.35,92.2036,0,0.000885,0,0
0:4:32.370,1638.18,92.7,0,0.000885,0,0
0:4:33.868,1647.84,93.2516,0,0.000885,0,0
0:4:35.385,1656.85,93.7618,0,0.000885,0,0
0:4:36.871,1665.97,94.272,0,0.000885,0,0
0:4:38.370,1675.22,94.796,0,0.000885,0,0
0:4:39.886,1684.7,95.3338,0,0.000885,0,0
0:4:41.378,1693.53,95.8371,0,0.000885,0,0
0:4:42.867,1702.78,96.3542,0,0.000885,0,0
0:4:44.381,1712.14,96.8851,0,0.000885,0,0
0:4:45.883,1722.21,97.4574,0,0.000885,0,0
0:4:47.383,1731.28,97.9676,0,0.000885,0,0
0:4:48.871,1740.34,98.4847,0,0.000885,0,0
0:4:50.386,1750.06,99.0363,0,0.000885,0,0
0:4:51.872,1758.6,99.5189,0,0.000885,0,0
0:4:53.359,1767.55,100.022,0,0.000885,0,0
0:4:54.873,1777.74,100.601,0,0.000885,0,0
0:4:56.361,1786.51,101.098,0,0.000885,0,0
0:4:57.849,1795.81,101.622,0,0.000885,0,0
0:4:59.353,1805.29,102.16,0,0.000885,0,0
0:5:0.862,1814.13,102.656,0,0.000885,0,0
0:5:2.362,1823.72,103.201,0,0.000885,0,0
0:5:3.864,1833.5,103.752,0,0.000885,0,0
0:5:5.374,1842.33,104.256,0,0.000885,0,0
0:5:6.864,1851.58,104.78,0,0.000885,0,0
0:5:8.381,1860.88,105.304,0,0.000885,0,0
0:5:9.888,1869.95,105.821,0,0.000885,0,0
0:5:11.381,1879.78,106.372,0,0.000885,0,0
0:5:12.867,1888.26,106.855,0,0.000885,0,0
0:5:14.385,1897.86,107.4,0,0.000885,0,0
0:5:15.881,1906.93,107.91,0,0.000885,0,0
0:5:17.371,1919.06,108.599,0,0.000885,0,0
0:5:18.861,1926.12,108.999,0,0.000885,0,0
0:5:20.372,1935.07,109.503,0,0.000885,0,0
0:5:21.864,1945.02,110.068,0,0.000885,0,0
0:5:23.370,1953.8,110.564,0,0.000885,0,0
0:5:24.880,1963.04,111.088,0,0.000885,0,0
0:5:26.374,1972.05,111.599,0,0.000885,0,0
0:5:27.862,1981.18,112.109,0,0.000885,0,0
0:5:29.389,1990.36,112.633,0,0.000885,0,0
0:5:30.885,1999.49,113.15,0,0.000885,0,0
0:5:32.373,2008.73,113.674,0,0.000885,0,0
0:5:33.869,2018.15,114.205,0,0.000885,0,0
0:5:35.380,2028.34,114.784,0,0.000885,0,0
0:5:36.880,2037.53,115.301,0,0.000885,0,0
0:5:38.367,2046.77,115.825,0,0.000885,0,0
0:5:39.885,2055.72,116.328,0,0.000885,0,0
0:5:41.381,2065.14,116.866,0,0.000885,0,0
0:5:42.875,2074.57,117.397,0,0.000885,0,0
0:5:44.394,2083.75,117.914,0,0.000885,0,0
0:5:45.899,2093,118.438,0,0.000885,0,0
0:5:47.389,2101.94,118.948,0,0.000885,0,0
0:5:48.887,2110.89,119.452,0,0.000885,0,0
0:5:50.390,2120.97,120.024,0,0.000885,0,0
0:5:51.879,2130.27,120.548,0,0.000885,0,0
0:5:53.377,2139.57,121.072,0,0.000885,0,0
0:5:54.891,2148.23,121.561,0,0.000885,0,0
0:5:56.385,2158.3,122.134,0,0.000885,0,0
0:5:57.883,2167.42,122.651,0,0.000885,0,0
0:5:59.380,2176.79,123.182,0,0.000885,0,0
0:6:0.884,2185.68,123.685,0,0.000885,0,0
0:6:1.874,2054.49,116.259,0,0.000885,0,0