Folder: Experiment-Files (part 56)

File: DataFile2021-06-29_071719.csv
Test ID:,Date Tested:,Time:,Test Type:,Diameter Avg. (mm):,Cyl. Corr. Factor:,Height (mm):,Age (days):,Weight (kN):,Break Type:,Ramp Rate (MPa/s):,Load at Break (kN):,Stress at Break (MPa):
12,6/29/2021,07:17,Cylinder,100,1,200,0,3.6,3,0.24,368.91,46.97
Sample Time,Load (kN),Stress (MPa),Long. Strain,Trans. Strain,Chan1 Deflection (mm),Chan2 Deflection (mm)
0:0:15.859,5.98286,0.758423,0,0.000885,0,0
0:0:16.668,13.5493,1.72369,0,0.000885,0,0
0:0:17.471,13.0199,1.65474,0,0.000885,0,0
0:0:18.262,12.9043,1.64095,0,0.000885,0,0
0:0:19.067,12.4906,1.59269,0,0.000885,0,0
0:0:19.856,12.5529,1.59958,0,0.000885,0,0
0:0:20.661,13.5493,1.72369,0,0.000885,0,0
0:0:21.472,15.6577,1.99258,0,0.000885,0,0
0:0:22.282,17.8863,2.27527,0,0.000885,0,0
0:0:23.083,19.9414,2.53727,0,0.000885,0,0
0:0:23.881,21.4093,2.72343,0,0.000885,0,0
0:0:24.678,22.6993,2.8889,0,0.000885,0,0
0:0:25.474,24.2828,3.08885,0,0.000885,0,0
0:0:26.272,25.2214,3.21296,0,0.000885,0,0
0:0:27.082,26.5692,3.38533,0,0.000885,0,0
0:0:27.888,28.74,3.66112,0,0.000885,0,0
0:0:28.681,30.9107,3.93691,0,0.000885,0,0
0:0:29.481,32.3163,4.11617,0,0.000885,0,0
0:0:30.274,33.6063,4.28164,0,0.000885,0,0
0:0:31.073,35.1899,4.48159,0,0.000885,0,0
0:0:31.875,36.4799,4.64707,0,0.000885,0,0
0:0:32.682,37.5964,4.78496,0,0.000885,0,0
0:0:33.484,39.9406,5.08833,0,0.000885,0,0
0:0:34.277,41.582,5.29517,0,0.000885,0,0
0:0:35.075,42.7563,5.44686,0,0.000885,0,0
0:0:35.865,44.1619,5.62612,0,0.000885,0,0
0:0:36.677,46.0391,5.86054,0,0.000885,0,0
0:0:37.484,47.6849,6.07428,0,0.000885,0,0
0:0:38.282,49.442,6.29491,0,0.000885,0,0
0:0:39.077,50.1448,6.38455,0,0.000885,0,0
0:0:39.876,52.6669,6.7086,0,0.000885,0,0
0:0:40.672,54.077,6.88786,0,0.000885,0,0
0:0:41.470,55.4248,7.06023,0,0.000885,0,0
0:0:42.280,56.3634,7.17744,0,0.000885,0,0
0:0:43.081,58.7076,7.47392,0,0.000885,0,0
0:0:43.878,60.1177,7.65318,0,0.000885,0,0
0:0:44.673,61.5812,7.83934,0,0.000885,0,0
0:0:45.472,62.9334,8.01171,0,0.000885,0,0
0:0:46.275,65.5712,8.34955,0,0.000885,0,0
0:0:47.086,66.0383,8.4116,0,0.000885,0,0
0:0:47.894,68.1512,8.6805,0,0.000885,0,0
0:0:48.687,69.4412,8.83908,0,0.000885,0,0
0:0:49.486,70.789,9.01145,0,0.000885,0,0
0:0:50.280,72.9019,9.28034,0,0.000885,0,0
0:0:51.080,73.9561,9.41824,0,0.000885,0,0
0:0:51.891,76.3048,9.71471,0,0.000885,0,0
0:0:52.696,77.3012,9.84571,0,0.000885,0,0
0:0:53.490,79.3563,10.1008,0,0.000885,0,0
0:0:54.285,80.0013,10.1836,0,0.000885,0,0
0:0:55.084,82.2877,10.48,0,0.000885,0,0
0:0:55.877,83.8134,10.6731,0,0.000885,0,0
0:0:56.685,85.5126,10.8868,0,0.000885,0,0
0:0:57.492,86.9183,11.0661,0,0.000885,0,0
0:0:58.293,88.6797,11.2936,0,0.000885,0,0
0:0:59.086,90.1477,11.4798,0,0.000885,0,0
0:0:59.885,91.3754,11.6315,0,0.000885,0,0
0:1:0.679,93.0212,11.8452,0,0.000885,0,0
0:1:1.478,94.3112,12.0107,0,0.000885,0,0
0:1:2.288,96.4819,12.2865,0,0.000885,0,0
0:1:3.089,97.0646,12.3623,0,0.000885,0,0
0:1:3.886,99.2354,12.6381,0,0.000885,0,0
0:1:4.680,101.642,12.9415,0,0.000885,0,0
0:1:5.477,102.229,13.0173,0,0.000885,0,0
0:1:6.271,104.044,13.2448,0,0.000885,0,0
0:1:7.082,105.627,13.4517,0,0.000885,0,0
0:1:7.888,107.567,13.693,0,0.000885,0,0
0:1:8.685,108.27,13.7826,0,0.000885,0,0
0:1:9.481,110.614,14.086,0,0.000885,0,0
0:1:10.276,111.788,14.2308,0,0.000885,0,0
0:1:11.073,113.372,14.4376,0,0.000885,0,0
0:1:11.882,115.307,14.6789,0,0.000885,0,0
0:1:12.687,116.13,14.7893,0,0.000885,0,0
0:1:13.481,118.416,15.0788,0,0.000885,0,0
0:1:14.279,119.648,15.2305,0,0.000885,0,0
0:1:15.080,121.405,15.458,0,0.000885,0,0
0:1:15.878,122.815,15.6373,0,0.000885,0,0
0:1:16.682,124.221,15.8166,0,0.000885,0,0
0:1:17.489,126.334,16.0855,0,0.000885,0,0
0:1:18.289,128.033,16.2992,0,0.000885,0,0
0:1:19.081,129.15,16.444,0,0.000885,0,0
0:1:19.878,130.204,16.575,0,0.000885,0,0
0:1:20.669,132.197,16.8301,0,0.000885,0,0
0:1:21.480,133.549,17.0025,0,0.000885,0,0
0:1:22.290,135.542,17.2576,0,0.000885,0,0
0:1:23.094,137.241,17.4713,0,0.000885,0,0
0:1:23.888,139.176,17.7195,0,0.000885,0,0
0:1:24.684,140.408,17.8781,0,0.000885,0,0
0:1:25.480,141.76,18.0505,0,0.000885,0,0
0:1:26.279,143.166,18.2297,0,0.000885,0,0
0:1:27.088,144.928,18.4504,0,0.000885,0,0
0:1:27.889,146.391,18.6365,0,0.000885,0,0
0:1:28.689,148.562,18.9123,0,0.000885,0,0
0:1:29.480,149.558,19.0433,0,0.000885,0,0
0:1:30.278,150.675,19.1812,0,0.000885,0,0
0:1:31.069,152.783,19.4501,0,0.000885,0,0
0:1:31.882,154.251,19.6432,0,0.000885,0,0
0:1:32.689,156.07,19.8707,0,0.000885,0,0
0:1:33.484,157.712,20.0775,0,0.000885,0,0
0:1:34.281,158.65,20.2016,0,0.000885,0,0
0:1:35.071,160.701,20.4636,0,0.000885,0,0
0:1:35.874,162.284,20.6636,0,0.000885,0,0
0:1:36.686,163.517,20.8222,0,0.000885,0,0
0:1:37.491,165.1,21.0221,0,0.000885,0,0
0:1:38.291,167.565,21.3324,0,0.000885,0,0
0:1:39.089,169.148,21.5392,0,0.000885,0,0
0:1:39.885,170.144,21.6633,0,0.000885,0,0
0:1:40.678,171.377,21.8219,0,0.000885,0,0
0:1:41.477,173.957,22.146,0,0.000885,0,0
0:1:42.287,174.659,22.2356,0,0.000885,0,0
0:1:43.093,176.537,22.4769,0,0.000885,0,0
0:1:43.886,178.182,22.6838,0,0.000885,0,0
0:1:44.684,179.882,22.9044,0,0.000885,0,0
0:1:45.478,181.35,23.0905,0,0.000885,0,0
0:1:46.287,182.933,23.2905,0,0.000885,0,0
0:1:47.097,183.987,23.4284,0,0.000885,0,0
0:1:47.897,185.277,23.587,0,0.000885,0,0
0:1:48.698,188.151,23.9593,0,0.000885,0,0
0:1:49.488,189.383,24.111,0,0.000885,0,0
0:1:50.287,190.379,24.242,0,0.000885,0,0
0:1:51.080,191.963,24.4419,0,0.000885,0,0
0:1:51.887,193.724,24.6625,0,0.000885,0,0
0:1:52.689,194.427,24.7522,0,0.000885,0,0
0:1:53.480,196.656,25.0418,0,0.000885,0,0
0:1:54.279,198.533,25.2762,0,0.000885,0,0
0:1:55.078,200.468,25.5244,0,0.000885,0,0
0:1:55.876,201.229,25.6209,0,0.000885,0,0
0:1:56.670,202.99,25.8484,0,0.000885,0,0
0:1:57.471,203.987,25.9726,0,0.000885,0,0
0:1:58.266,206.273,26.2621,0,0.000885,0,0
0:1:59.068,207.096,26.3656,0,0.000885,0,0
0:1:59.865,209.324,26.6551,0,0.000885,0,0
0:2:0.667,211.259,26.8964,0,0.000885,0,0
0:2:1.476,212.434,27.0481,0,0.000885,0,0
0:2:2.279,214.662,27.3308,0,0.000885,0,0
0:2:3.083,215.659,27.4618,0,0.000885,0,0
0:2:3.870,216.949,27.6204,0,0.000885,0,0
0:2:4.672,218.826,27.8617,0,0.000885,0,0
0:2:5.469,219.529,27.9513,0,0.000885,0,0
0:2:6.262,221.935,28.2547,0,0.000885,0,0
0:2:7.066,223.692,28.4822,0,0.000885,0,0
0:2:7.865,224.222,28.5512,0,0.000885,0,0
0:2:8.656,227.562,28.9718,0,0.000885,0,0
0:2:9.463,228.269,29.0614,0,0.000885,0,0
0:2:10.273,229.969,29.282,0,0.000885,0,0
0:2:11.062,230.907,29.3992,0,0.000885,0,0
0:2:11.865,233.251,29.6957,0,0.000885,0,0
0:2:12.666,234.719,29.8888,0,0.000885,0,0
0:2:13.470,236.361,30.0956,0,0.000885,0,0
0:2:14.278,237.709,30.268,0,0.000885,0,0
0:2:15.079,239.648,30.5093,0,0.000885,0,0
0:2:15.878,241.169,30.7092,0,0.000885,0,0
0:2:16.683,241.876,30.7989,0,0.000885,0,0
0:2:17.486,244.043,31.0747,0,0.000885,0,0
0:2:18.280,245.337,31.2401,0,0.000885,0,0
0:2:19.082,247.036,31.4539,0,0.000885,0,0
0:2:19.875,248.62,31.6538,0,0.000885,0,0
0:2:20.669,250.733,31.9227,0,0.000885,0,0
0:2:21.478,251.671,32.0468,0,0.000885,0,0
0:2:22.280,253.251,32.2468,0,0.000885,0,0
0:2:23.074,255.128,32.4812,0,0.000885,0,0
0:2:23.881,256.129,32.6122,0,0.000885,0,0
0:2:24.685,257.943,32.8397,0,0.000885,0,0
0:2:25.469,259.233,33.0052,0,0.000885,0,0
0:2:26.265,260.817,33.2052,0,0.000885,0,0
0:2:27.070,262.814,33.4603,0,0.000885,0,0
0:2:27.874,264.336,33.6533,0,0.000885,0,0
0:2:28.675,265.568,33.8119,0,0.000885,0,0
0:2:29.482,266.684,33.9567,0,0.000885,0,0
0:2:30.276,268.561,34.1911,0,0.000885,0,0
0:2:31.085,270.612,34.4531,0,0.000885,0,0
0:2:31.890,272.489,34.6944,0,0.000885,0,0
0:2:32.691,274.486,34.9495,0,0.000885,0,0
0:2:33.477,275.483,35.0736,0,0.000885,0,0
0:2:34.269,277.591,35.3425,0,0.000885,0,0
0:2:35.065,278.121,35.4115,0,0.000885,0,0
0:2:35.867,280.291,35.6873,0,0.000885,0,0
0:2:36.665,280.701,35.7424,0,0.000885,0,0
0:2:37.468,283.107,36.0458,0,0.000885,0,0
0:2:38.272,284.864,36.2733,0,0.000885,0,0
0:2:39.070,286.332,36.4595,0,0.000885,0,0
0:2:39.864,288.031,36.6732,0,0.000885,0,0
0:2:40.670,289.09,36.8111,0,0.000885,0,0
0:2:41.474,290.789,37.0248,0,0.000885,0,0
0:2:42.281,292.551,37.2455,0,0.000885,0,0
0:2:43.076,294.25,37.4661,0,0.000885,0,0
0:2:43.866,295.949,37.6798,0,0.000885,0,0
0:2:44.655,297.181,37.8384,0,0.000885,0,0
0:2:45.447,298.885,38.0522,0,0.000885,0,0
0:2:46.234,300.233,38.2245,0,0.000885,0,0
0:2:47.040,302.11,38.4659,0,0.000885,0,0
0:2:47.843,303.693,38.6658,0,0.000885,0,0
0:2:48.633,305.393,38.8864,0,0.000885,0,0
0:2:49.424,307.034,39.0933,0,0.000885,0,0
0:2:50.211,307.915,39.2036,0,0.000885,0,0
0:2:51.003,309.792,39.4449,0,0.000885,0,0
0:2:51.807,311.727,39.6931,0,0.000885,0,0
0:2:52.608,313.253,39.8862,0,0.000885,0,0
0:2:53.395,314.191,40.0034,0,0.000885,0,0
0:2:54.188,316.011,40.2378,0,0.000885,0,0
0:2:54.984,317.474,40.424,0,0.000885,0,0
0:2:55.775,319.178,40.6377,0,0.000885,0,0
0:2:56.582,320.761,40.8376,0,0.000885,0,0
0:2:57.385,322.696,41.0859,0,0.000885,0,0
0:2:58.190,324.16,41.272,0,0.000885,0,0
0:2:58.977,325.392,41.4306,0,0.000885,0,0
0:2:59.769,326.74,41.603,0,0.000885,0,0
0:3:0.557,328.265,41.796,0,0.000885,0,0
0:3:1.349,330.027,42.0235,0,0.000885,0,0
0:3:2.154,331.846,42.2511,0,0.000885,0,0
0:3:2.955,333.252,42.4303,0,0.000885,0,0
0:3:3.740,335.013,42.6579,0,0.000885,0,0
0:3:4.532,336.361,42.8233,0,0.000885,0,0
0:3:5.322,336.891,42.8923,0,0.000885,0,0
0:3:6.115,339.408,43.2163,0,0.000885,0,0
0:3:6.920,341.228,43.4439,0,0.000885,0,0
0:3:7.715,342.46,43.6024,0,0.000885,0,0
0:3:8.507,344.395,43.8507,0,0.000885,0,0
0:3:9.294,345.627,44.0092,0,0.000885,0,0
0:3:10.086,346.917,44.1678,0,0.000885,0,0
0:3:10.880,348.558,44.3816,0,0.000885,0,0
0:3:11.687,350.026,44.5677,0,0.000885,0,0
0:3:12.487,351.432,44.747,0,0.000885,0,0
0:3:13.287,352.957,44.94,0,0.000885,0,0
0:3:14.087,355.244,45.2296,0,0.000885,0,0
0:3:14.875,356.712,45.4158,0,0.000885,0,0
0:3:15.677,358.18,45.6019,0,0.000885,0,0
0:3:16.480,359.705,45.8019,0,0.000885,0,0
0:3:17.287,361.347,46.0087,0,0.000885,0,0
0:3:18.078,362.343,46.1328,0,0.000885,0,0
0:3:18.873,364.042,46.3535,0,0.000885,0,0
0:3:19.671,365.92,46.5879,0,0.000885,0,0
0:3:20.471,366.507,46.6637,0,0.000885,0,0
0:3:21.069,368.033,46.8568,0,0.000885,0,0
0:3:21.873,368.678,46.9395,0,0.000885,0,0
0:3:22.666,368.793,46.9533,0,0.000885,0,0
0:3:23.460,367.561,46.8016,0,0.000885,0,0
0:3:24.246,362.695,46.1811,0,0.000885,0,0
0:3:25.036,326.566,41.5823,0,0.000885,0,0
0:3:25.529,270.67,34.46,0,0.000885,0,0

File: DataFile2021-06-29_073530.csv
Test ID:,Date Tested:,Time:,Test Type:,Diameter Avg. (mm):,Cyl. Corr. Factor:,Height (mm):,Age (days):,Weight (kN):,Break Type:,Ramp Rate (MPa/s):,Load at Break (kN):,Stress at Break (MPa):
12,6/29/2021,07:35,Cylinder,150,1,300,0,3.6,3,0.24,646.02,36.56
Sample Time,Load (kN),Stress (MPa),Long. Strain,Trans. Strain,Chan1 Deflection (mm),Chan2 Deflection (mm)
0:0:19.948,5.15994,0.28958,0,0.000885,0,0
0:0:20.655,13.6649,0.772213,0,0.000885,0,0
0:0:21.348,12.9043,0.730844,0,0.000885,0,0
0:0:22.050,13.3714,0.758423,0,0.000885,0,0
0:0:22.757,16.1871,0.917003,0,0.000885,0,0
0:0:23.451,19.412,1.09627,0,0.000885,0,0
0:0:24.147,22.9306,1.29621,0,0.000885,0,0
0:0:24.847,27.0986,1.53064,0,0.000885,0,0
0:0:25.556,31.0263,1.75816,0,0.000885,0,0
0:0:26.265,34.9541,1.9788,0,0.000885,0,0
0:0:26.972,36.7156,2.07532,0,0.000885,0,0
0:0:27.666,39.002,2.20632,0,0.000885,0,0
0:0:28.366,41.9334,2.3718,0,0.000885,0,0
0:0:29.063,45.2206,2.55795,0,0.000885,0,0
0:0:29.757,48.6191,2.75101,0,0.000885,0,0
0:0:30.458,52.5513,2.97164,0,0.000885,0,0
0:0:31.167,55.4248,3.13711,0,0.000885,0,0
0:0:31.874,58.2984,3.29569,0,0.000885,0,0
0:0:32.574,60.6426,3.43359,0,0.000885,0,0
0:0:33.266,63.9298,3.61975,0,0.000885,0,0
0:0:33.964,67.742,3.83349,0,0.000885,0,0
0:0:34.665,70.6733,3.99896,0,0.000885,0,0
0:0:35.366,73.1377,4.13685,0,0.000885,0,0
0:0:36.074,76.3048,4.31612,0,0.000885,0,0
0:0:36.779,79.4719,4.49538,0,0.000885,0,0
0:0:37.473,82.9326,4.69533,0,0.000885,0,0
0:0:38.174,85.9218,4.8608,0,0.000885,0,0
0:0:38.870,88.9733,5.03317,0,0.000885,0,0
0:0:39.565,92.1405,5.21244,0,0.000885,0,0
0:0:40.266,95.014,5.37791,0,0.000885,0,0
0:0:40.975,97.7096,5.5296,0,0.000885,0,0
0:0:41.682,101.7,5.75712,0,0.000885,0,0
0:0:42.381,104.573,5.9157,0,0.000885,0,0
0:0:43.076,107.038,6.06049,0,0.000885,0,0
0:0:43.773,110.556,6.25354,0,0.000885,0,0
0:0:44.471,113.372,6.41212,0,0.000885,0,0
0:0:45.165,116.245,6.5776,0,0.000885,0,0
0:0:45.874,120.173,6.79823,0,0.000885,0,0
0:0:46.582,123.047,6.9637,0,0.000885,0,0
0:0:47.281,125.747,7.11539,0,0.000885,0,0
0:0:47.980,129.092,7.30155,0,0.000885,0,0
0:0:48.676,132.023,7.47392,0,0.000885,0,0
0:0:49.375,135.893,7.68765,0,0.000885,0,0
0:0:50.073,138.237,7.82555,0,0.000885,0,0
0:0:50.773,141.467,8.00481,0,0.000885,0,0
0:0:51.483,144.572,8.18408,0,0.000885,0,0
0:0:52.189,147.507,8.34955,0,0.000885,0,0
0:0:52.883,150.612,8.52192,0,0.000885,0,0
0:0:53.582,154.429,8.73566,0,0.000885,0,0
0:0:54.278,157.182,8.89424,0,0.000885,0,0
0:0:54.973,160.056,9.05971,0,0.000885,0,0
0:0:55.682,163.343,9.24587,0,0.000885,0,0
0:0:56.388,166.039,9.39755,0,0.000885,0,0
0:0:57.089,169.557,9.5975,0,0.000885,0,0
0:0:57.789,172.079,9.7354,0,0.000885,0,0
0:0:58.484,175.598,9.93535,0,0.000885,0,0
0:0:59.183,178.707,10.1146,0,0.000885,0,0
0:0:59.881,181.581,10.2732,0,0.000885,0,0
0:1:0.582,184.223,10.4249,0,0.000885,0,0
0:1:1.293,187.915,10.6317,0,0.000885,0,0
0:1:1.996,191.434,10.8317,0,0.000885,0,0
0:1:2.689,194.485,11.004,0,0.000885,0,0
0:1:3.386,197.243,11.1626,0,0.000885,0,0
0:1:4.076,200.232,11.3281,0,0.000885,0,0
0:1:4.766,202.754,11.4729,0,0.000885,0,0
0:1:5.462,206.393,11.6797,0,0.000885,0,0
0:1:6.166,209.734,11.8659,0,0.000885,0,0
0:1:6.868,212.492,12.0245,0,0.000885,0,0
0:1:7.562,215.249,12.183,0,0.000885,0,0
0:1:8.253,218.768,12.383,0,0.000885,0,0
0:1:8.953,220.997,12.5071,0,0.000885,0,0
0:1:9.646,225.04,12.7346,0,0.000885,0,0
0:1:10.343,227.856,12.8932,0,0.000885,0,0
0:1:11.048,231.023,13.0725,0,0.000885,0,0
0:1:11.746,234.074,13.2448,0,0.000885,0,0
0:1:12.456,237.651,13.4517,0,0.000885,0,0
0:1:13.151,240.293,13.5965,0,0.000885,0,0
0:1:13.853,243.634,13.7895,0,0.000885,0,0
0:1:14.540,246.801,13.9688,0,0.000885,0,0
0:1:15.235,249.674,14.1274,0,0.000885,0,0
0:1:15.939,252.49,14.2859,0,0.000885,0,0
0:1:16.640,256.008,14.4859,0,0.000885,0,0
0:1:17.335,258.824,14.6445,0,0.000885,0,0
0:1:18.043,261.231,14.7824,0,0.000885,0,0
0:1:18.745,265.51,15.0237,0,0.000885,0,0
0:1:19.451,268.09,15.1685,0,0.000885,0,0
0:1:20.137,271.377,15.3546,0,0.000885,0,0
0:1:20.843,274.193,15.5132,0,0.000885,0,0
0:1:21.545,277.066,15.6787,0,0.000885,0,0
0:1:22.237,280.349,15.8648,0,0.000885,0,0
0:1:22.954,283.81,16.0579,0,0.000885,0,0
0:1:23.644,286.39,16.2096,0,0.000885,0,0
0:1:24.353,289.735,16.3957,0,0.000885,0,0
0:1:25.046,292.902,16.575,0,0.000885,0,0
0:1:25.741,295.776,16.7405,0,0.000885,0,0
0:1:26.447,299.058,16.9266,0,0.000885,0,0
0:1:27.147,302.461,17.1128,0,0.000885,0,0
0:1:27.858,305.099,17.2645,0,0.000885,0,0
0:1:28.549,308.324,17.4506,0,0.000885,0,0
0:1:29.255,311.376,17.623,0,0.000885,0,0
0:1:29.953,315.072,17.8298,0,0.000885,0,0
0:1:30.658,317.888,17.9884,0,0.000885,0,0
0:1:31.360,320.877,18.1608,0,0.000885,0,0
0:1:32.056,323.75,18.3194,0,0.000885,0,0
0:1:32.758,326.86,18.4986,0,0.000885,0,0
0:1:33.459,329.618,18.6503,0,0.000885,0,0
0:1:34.148,332.843,18.8365,0,0.000885,0,0
0:1:34.854,335.952,19.0088,0,0.000885,0,0
0:1:35.560,338.825,19.1743,0,0.000885,0,0
0:1:36.265,342.518,19.3812,0,0.000885,0,0
0:1:36.965,346.156,19.588,0,0.000885,0,0
0:1:37.654,348.62,19.7259,0,0.000885,0,0
0:1:38.357,351.845,19.9121,0,0.000885,0,0
0:1:39.049,354.892,20.0844,0,0.000885,0,0
0:1:39.738,357.183,20.2154,0,0.000885,0,0
0:1:40.433,360.582,20.4016,0,0.000885,0,0
0:1:41.139,364.1,20.6015,0,0.000885,0,0
0:1:41.841,366.8,20.7532,0,0.000885,0,0
0:1:42.547,370.906,20.9876,0,0.000885,0,0
0:1:43.246,373.837,21.1531,0,0.000885,0,0
0:1:43.940,376.36,21.2979,0,0.000885,0,0
0:1:44.642,379.233,21.4634,0,0.000885,0,0
0:1:45.347,382.227,21.6289,0,0.000885,0,0
0:1:46.052,385.861,21.8357,0,0.000885,0,0
0:1:46.751,388.912,22.0081,0,0.000885,0,0
0:1:47.440,392.195,22.1942,0,0.000885,0,0
0:1:48.145,394.833,22.3459,0,0.000885,0,0
0:1:48.856,398.53,22.5528,0,0.000885,0,0
0:1:49.555,400.758,22.6769,0,0.000885,0,0
0:1:50.261,404.161,22.8699,0,0.000885,0,0
0:1:50.968,407.27,23.0492,0,0.000885,0,0
0:1:51.667,410.086,23.2078,0,0.000885,0,0
0:1:52.361,413.311,23.387,0,0.000885,0,0
0:1:53.060,416.358,23.5594,0,0.000885,0,0
0:1:53.751,419.294,23.7249,0,0.000885,0,0
0:1:54.457,423.279,23.9524,0,0.000885,0,0
0:1:55.143,426.682,24.1454,0,0.000885,0,0
0:1:55.846,429.204,24.2902,0,0.000885,0,0
0:1:56.549,431.784,24.435,0,0.000885,0,0
0:1:57.251,434.836,24.6074,0,0.000885,0,0
0:1:57.959,438.412,24.8073,0,0.000885,0,0
0:1:58.648,441.228,24.9659,0,0.000885,0,0
0:1:59.358,444.217,25.1383,0,0.000885,0,0
0:2:0.053,447.798,25.3382,0,0.000885,0,0
0:2:0.758,450.845,25.5106,0,0.000885,0,0
0:2:1.463,453.719,25.6761,0,0.000885,0,0
0:2:2.165,457.237,25.876,0,0.000885,0,0
0:2:2.853,459.822,26.0208,0,0.000885,0,0
0:2:3.556,462.637,26.1794,0,0.000885,0,0
0:2:4.260,466.094,26.3724,0,0.000885,0,0
0:2:4.948,469.087,26.5448,0,0.000885,0,0
0:2:5.652,471.783,26.6965,0,0.000885,0,0
0:2:6.354,475.715,26.9171,0,0.000885,0,0
0:2:7.046,478.882,27.0964,0,0.000885,0,0
0:2:7.742,481.929,27.2688,0,0.000885,0,0
0:2:8.451,484.514,27.4204,0,0.000885,0,0
0:2:9.163,487.681,27.5997,0,0.000885,0,0
0:2:9.858,490.434,27.7514,0,0.000885,0,0
0:2:10.550,493.721,27.9376,0,0.000885,0,0
0:2:11.257,496.826,28.1168,0,0.000885,0,0
0:2:11.959,499.936,28.2892,0,0.000885,0,0
0:2:12.646,503.454,28.4891,0,0.000885,0,0
0:2:13.340,506.684,28.6753,0,0.000885,0,0
0:2:14.042,509.143,28.8132,0,0.000885,0,0
0:2:14.753,512.489,28.9993,0,0.000885,0,0
0:2:15.455,515.246,29.1579,0,0.000885,0,0
0:2:16.163,518.938,29.3648,0,0.000885,0,0
0:2:16.864,521.287,29.4958,0,0.000885,0,0
0:2:17.558,524.57,29.6819,0,0.000885,0,0
0:2:18.245,527.853,29.8681,0,0.000885,0,0
0:2:18.951,531.549,30.0818,0,0.000885,0,0
0:2:19.641,533.836,30.2059,0,0.000885,0,0
0:2:20.350,537.416,30.4128,0,0.000885,0,0
0:2:21.059,539.996,30.5576,0,0.000885,0,0
0:2:21.759,542.928,30.723,0,0.000885,0,0
0:2:22.466,546.682,30.9368,0,0.000885,0,0
0:2:23.156,549.729,31.1091,0,0.000885,0,0
0:2:23.845,552.313,31.2539,0,0.000885,0,0
0:2:24.540,556.063,31.4677,0,0.000885,0,0
0:2:25.241,558.648,31.6125,0,0.000885,0,0
0:2:25.942,561.401,31.771,0,0.000885,0,0
0:2:26.645,565.391,31.9917,0,0.000885,0,0
0:2:27.341,567.971,32.1434,0,0.000885,0,0
0:2:28.055,570.96,32.3088,0,0.000885,0,0
0:2:28.767,573.954,32.4812,0,0.000885,0,0
0:2:29.467,577.006,32.6536,0,0.000885,0,0
0:2:30.163,580.818,32.8673,0,0.000885,0,0
0:2:30.866,582.984,32.9914,0,0.000885,0,0
0:2:31.568,586.387,33.1845,0,0.000885,0,0
0:2:32.261,589.612,33.3637,0,0.000885,0,0
0:2:32.952,592.548,33.5292,0,0.000885,0,0
0:2:33.649,595.599,33.7016,0,0.000885,0,0
0:2:34.353,599.064,33.9015,0,0.000885,0,0
0:2:35.049,602.116,34.0739,0,0.000885,0,0
0:2:35.757,605.287,34.2532,0,0.000885,0,0
0:2:36.465,607.632,34.3842,0,0.000885,0,0
0:2:37.162,610.158,34.5289,0,0.000885,0,0
0:2:37.868,614.326,34.7634,0,0.000885,0,0
0:2:38.561,617.671,34.9564,0,0.000885,0,0
0:2:39.257,620.135,35.0943,0,0.000885,0,0
0:2:39.950,623.716,35.2943,0,0.000885,0,0
0:2:40.655,626.416,35.4459,0,0.000885,0,0
0:2:41.364,628.943,35.5907,0,0.000885,0,0
0:2:42.062,632.991,35.8183,0,0.000885,0,0
0:2:42.758,635.046,35.9355,0,0.000885,0,0
0:2:43.454,637.862,36.0941,0,0.000885,0,0
0:2:44.145,640.21,36.2319,0,0.000885,0,0
0:2:44.843,643.088,36.3905,0,0.000885,0,0
0:2:45.540,644.378,36.4664,0,0.000885,0,0
0:2:46.247,646.024,36.556,0,0.000885,0,0
0:2:46.952,645.553,36.5284,0,0.000885,0,0
0:2:47.652,636.985,36.0458,0,0.000885,0,0
0:2:48.356,600.239,33.9636,0,0.000885,0,0
0:2:49.049,495.479,28.041,0,0.000885,0,0
0:2:49.080,495.479,28.041,0,0.000885,0,0