Folder: Experiment-Files (part 20)

File: DataFile2021-06-08_032217.csv
Test ID:,Date Tested:,Time:,Test Type:,Diameter Avg. (mm):,Cyl. Corr. Factor:,Height (mm):,Age (days):,Weight (kN):,Break Type:,Ramp Rate (MPa/s):,Load at Break (kN):,Stress at Break (MPa):
12,6/8/2021,03:22,Cylinder,100,1,200,0,3.6,3,0.25,687.87,87.58
Sample Time,Load (kN),Stress (MPa),Long. Strain,Trans. Strain,Chan1 Deflection (mm),Chan2 Deflection (mm)
0:0:6.228,5.04428,0.641212,0,0.000885,0,0
0:0:7.740,7.27284,0.923897,0,0.000885,0,0
0:0:9.247,10.4978,1.33758,0,0.000885,0,0
0:0:10.746,13.3714,1.70301,0,0.000885,0,0
0:0:12.254,17.655,2.24769,0,0.000885,0,0
0:0:13.752,20.2928,2.58553,0,0.000885,0,0
0:0:15.246,23.4021,2.97854,0,0.000885,0,0
0:0:16.744,25.5728,3.25433,0,0.000885,0,0
0:0:18.258,29.0914,3.70248,0,0.000885,0,0
0:0:19.751,31.9649,4.06791,0,0.000885,0,0
0:0:21.244,34.6027,4.40575,0,0.000885,0,0
0:0:22.753,37.5964,4.78496,0,0.000885,0,0
0:0:24.253,40.292,5.1297,0,0.000885,0,0
0:0:25.747,43.2234,5.50202,0,0.000885,0,0
0:0:27.248,46.2748,5.89502,0,0.000885,0,0
0:0:28.755,49.9713,6.36386,0,0.000885,0,0
0:0:30.246,52.4356,6.67413,0,0.000885,0,0
0:0:31.747,55.4248,7.06023,0,0.000885,0,0
0:0:33.263,58.2984,7.42565,0,0.000885,0,0
0:0:34.755,60.8784,7.74971,0,0.000885,0,0
0:0:36.246,64.0455,8.1565,0,0.000885,0,0
0:0:37.762,66.9769,8.52881,0,0.000885,0,0
0:0:39.253,69.7926,8.88734,0,0.000885,0,0
0:0:40.747,73.022,9.29413,0,0.000885,0,0
0:0:42.255,75.602,9.62508,0,0.000885,0,0
0:0:43.753,78.7691,10.0319,0,0.000885,0,0
0:0:45.245,82.1097,10.4525,0,0.000885,0,0
0:0:46.745,84.6319,10.7765,0,0.000885,0,0
0:0:48.255,88.0926,11.2178,0,0.000885,0,0
0:0:49.746,90.8505,11.5694,0,0.000885,0,0
0:0:51.249,93.6662,11.9279,0,0.000885,0,0
0:0:52.761,96.5398,12.2934,0,0.000885,0,0
0:0:54.257,99.3555,12.6519,0,0.000885,0,0
0:0:55.748,102.109,13.0035,0,0.000885,0,0
0:0:57.249,105.512,13.431,0,0.000885,0,0
0:0:58.754,108.443,13.8102,0,0.000885,0,0
0:1:0.243,110.614,14.086,0,0.000885,0,0
0:1:1.753,114.484,14.5755,0,0.000885,0,0
0:1:3.261,116.712,14.8582,0,0.000885,0,0
0:1:4.752,119.942,15.2719,0,0.000885,0,0
0:1:6.244,123.812,15.7614,0,0.000885,0,0
0:1:7.756,126.392,16.0924,0,0.000885,0,0
0:1:9.253,129.15,16.444,0,0.000885,0,0
0:1:10.745,131.787,16.7818,0,0.000885,0,0
0:1:12.257,134.545,17.1335,0,0.000885,0,0
0:1:13.761,137.77,17.5403,0,0.000885,0,0
0:1:15.251,140.88,17.9402,0,0.000885,0,0
0:1:16.740,143.46,18.2642,0,0.000885,0,0
0:1:18.257,146.862,18.6986,0,0.000885,0,0
0:1:19.749,150.323,19.1398,0,0.000885,0,0
0:1:21.249,152.316,19.395,0,0.000885,0,0
0:1:22.765,154.896,19.719,0,0.000885,0,0
0:1:24.260,158.121,20.1327,0,0.000885,0,0
0:1:25.749,161.23,20.5257,0,0.000885,0,0
0:1:27.263,164.34,20.9256,0,0.000885,0,0
0:1:28.767,167.742,21.36,0,0.000885,0,0
0:1:30.259,169.615,21.5944,0,0.000885,0,0
0:1:31.749,173.547,22.0977,0,0.000885,0,0
0:1:33.263,175.892,22.3942,0,0.000885,0,0
0:1:34.753,179.179,22.8148,0,0.000885,0,0
0:1:36.251,181.465,23.1043,0,0.000885,0,0
0:1:37.763,185.513,23.6214,0,0.000885,0,0
0:1:39.254,187.742,23.9041,0,0.000885,0,0
0:1:40.755,191.434,24.373,0,0.000885,0,0
0:1:42.258,194.543,24.7729,0,0.000885,0,0
0:1:43.748,196.714,25.0487,0,0.000885,0,0
0:1:45.238,200.059,25.4692,0,0.000885,0,0
0:1:46.749,202.754,25.814,0,0.000885,0,0
0:1:48.250,204.925,26.0898,0,0.000885,0,0
0:1:49.739,208.679,26.5724,0,0.000885,0,0
0:1:51.249,210.966,26.862,0,0.000885,0,0
0:1:52.743,215.187,27.3998,0,0.000885,0,0
0:1:54.240,217.829,27.7376,0,0.000885,0,0
0:1:55.737,219.822,27.9858,0,0.000885,0,0
0:1:57.254,222.989,28.3926,0,0.000885,0,0
0:1:58.751,226.624,28.8546,0,0.000885,0,0
0:2:0.241,229.733,29.2476,0,0.000885,0,0
0:2:1.757,231.437,29.4682,0,0.000885,0,0
0:2:3.259,235.542,29.9922,0,0.000885,0,0
0:2:4.749,237.241,30.2059,0,0.000885,0,0
0:2:6.249,241.583,30.7575,0,0.000885,0,0
0:2:7.758,244.336,31.1091,0,0.000885,0,0
0:2:9.254,246.098,31.3367,0,0.000885,0,0
0:2:10.753,249.501,31.7641,0,0.000885,0,0
0:2:12.252,253.135,32.233,0,0.000885,0,0
0:2:13.746,255.128,32.4812,0,0.000885,0,0
0:2:15.236,258.94,32.9707,0,0.000885,0,0
0:2:16.756,261.346,33.2741,0,0.000885,0,0
0:2:18.262,265.101,33.7567,0,0.000885,0,0
0:2:19.750,266.569,33.9429,0,0.000885,0,0
0:2:21.238,271.026,34.5083,0,0.000885,0,0
0:2:22.741,273.192,34.7841,0,0.000885,0,0
0:2:24.252,275.598,35.0874,0,0.000885,0,0
0:2:25.731,279.411,35.5769,0,0.000885,0,0
0:2:27.246,282.048,35.9148,0,0.000885,0,0
0:2:28.741,284.571,36.2319,0,0.000885,0,0
0:2:30.242,288.209,36.6939,0,0.000885,0,0
0:2:31.745,291.376,37.1007,0,0.000885,0,0
0:2:33.249,293.369,37.3558,0,0.000885,0,0
0:2:34.746,297.181,37.8384,0,0.000885,0,0
0:2:36.253,299.41,38.1211,0,0.000885,0,0
0:2:37.760,301.99,38.4521,0,0.000885,0,0
0:2:39.244,305.864,38.9416,0,0.000885,0,0
0:2:40.742,308.796,39.3139,0,0.000885,0,0
0:2:42.248,311.26,39.6311,0,0.000885,0,0
0:2:43.734,314.6,40.0585,0,0.000885,0,0
0:2:45.255,317.416,40.4171,0,0.000885,0,0
0:2:46.748,320.583,40.817,0,0.000885,0,0
0:2:48.247,323.577,41.1962,0,0.000885,0,0
0:2:49.758,325.921,41.4995,0,0.000885,0,0
0:2:51.245,328.973,41.8857,0,0.000885,0,0
0:2:52.754,331.081,42.1545,0,0.000885,0,0
0:2:54.261,335.658,42.7337,0,0.000885,0,0
0:2:55.761,338.238,43.0647,0,0.000885,0,0
0:2:57.260,340.525,43.3542,0,0.000885,0,0
0:2:58.758,343.928,43.7886,0,0.000885,0,0
0:3:0.244,347.504,44.2437,0,0.000885,0,0
0:3:1.765,350.32,44.6022,0,0.000885,0,0
0:3:3.259,353.429,45.0021,0,0.000885,0,0
0:3:4.744,354.892,45.1882,0,0.000885,0,0
0:3:6.257,358.94,45.6985,0,0.000885,0,0
0:3:7.761,360.875,45.9467,0,0.000885,0,0
0:3:9.261,364.336,46.3879,0,0.000885,0,0
0:3:10.742,367.503,46.7947,0,0.000885,0,0
0:3:12.247,370.377,47.1601,0,0.000885,0,0
0:3:13.748,373.544,47.56,0,0.000885,0,0
0:3:15.260,376.008,47.8772,0,0.000885,0,0
0:3:16.744,379.469,48.3185,0,0.000885,0,0
0:3:18.247,382.458,48.6977,0,0.000885,0,0
0:3:19.747,384.687,48.9804,0,0.000885,0,0
0:3:21.247,387.445,49.332,0,0.000885,0,0
0:3:22.746,391.141,49.8008,0,0.000885,0,0
0:3:24.233,394.366,50.2145,0,0.000885,0,0
0:3:25.754,397.124,50.5661,0,0.000885,0,0
0:3:27.246,400.171,50.9523,0,0.000885,0,0
0:3:28.751,402.462,51.2418,0,0.000885,0,0
0:3:30.262,405.393,51.6142,0,0.000885,0,0
0:3:31.762,408.56,52.0209,0,0.000885,0,0
0:3:33.259,411.901,52.4484,0,0.000885,0,0
0:3:34.749,414.717,52.8001,0,0.000885,0,0
0:3:36.252,417.768,53.1931,0,0.000885,0,0
0:3:37.759,420.642,53.5585,0,0.000885,0,0
0:3:39.264,423.222,53.8894,0,0.000885,0,0
0:3:40.753,426.504,54.3031,0,0.000885,0,0
0:3:42.270,429.44,54.6754,0,0.000885,0,0
0:3:43.765,431.784,54.9788,0,0.000885,0,0
0:3:45.254,435.129,55.3994,0,0.000885,0,0
0:3:46.746,437.825,55.7441,0,0.000885,0,0
0:3:48.251,441.228,56.1785,0,0.000885,0,0
0:3:49.751,443.866,56.5163,0,0.000885,0,0
0:3:51.262,447.211,56.9438,0,0.000885,0,0
0:3:52.765,450.084,57.3092,0,0.000885,0,0
0:3:54.256,452.664,57.6333,0,0.000885,0,0
0:3:55.738,456.361,58.1021,0,0.000885,0,0
0:3:57.232,458.532,58.3848,0,0.000885,0,0
0:3:58.728,461.757,58.7916,0,0.000885,0,0
0:4:0.209,464.63,59.157,0,0.000885,0,0
0:4:1.690,467.446,59.5155,0,0.000885,0,0
0:4:3.195,470.613,59.9223,0,0.000885,0,0
0:4:4.676,473.544,60.2947,0,0.000885,0,0
0:4:6.166,476.124,60.6187,0,0.000885,0,0
0:4:7.672,479.291,61.0255,0,0.000885,0,0
0:4:9.166,482.107,61.384,0,0.000885,0,0
0:4:10.654,485.039,61.7563,0,0.000885,0,0
0:4:12.150,488.148,62.1562,0,0.000885,0,0
0:4:13.664,491.257,62.5492,0,0.000885,0,0
0:4:15.163,493.953,62.894,0,0.000885,0,0
0:4:16.653,497.062,63.287,0,0.000885,0,0
0:4:18.157,499.469,63.5972,0,0.000885,0,0
0:4:19.657,503.103,64.0592,0,0.000885,0,0
0:4:21.148,505.918,64.4177,0,0.000885,0,0
0:4:22.653,509.143,64.8245,0,0.000885,0,0
0:4:24.133,510.963,65.0589,0,0.000885,0,0
0:4:25.615,514.481,65.5071,0,0.000885,0,0
0:4:27.111,517.124,65.8449,0,0.000885,0,0
0:4:28.606,520.7,66.3,0,0.000885,0,0
0:4:30.086,523.222,66.6171,0,0.000885,0,0
0:4:31.567,526.211,66.9964,0,0.000885,0,0
0:4:33.069,529.205,67.3825,0,0.000885,0,0
0:4:34.557,532.31,67.7755,0,0.000885,0,0
0:4:36.046,534.658,68.0719,0,0.000885,0,0
0:4:37.553,538.119,68.5132,0,0.000885,0,0
0:4:39.052,540.583,68.8304,0,0.000885,0,0
0:4:40.561,543.457,69.1958,0,0.000885,0,0
0:4:42.062,546.855,69.6302,0,0.000885,0,0
0:4:43.559,549.026,69.9059,0,0.000885,0,0
0:4:45.052,552.487,70.3472,0,0.000885,0,0
0:4:46.547,556.183,70.8161,0,0.000885,0,0
0:4:48.048,558.118,71.0643,0,0.000885,0,0
0:4:49.559,561.401,71.4779,0,0.000885,0,0
0:4:51.059,564.101,71.8227,0,0.000885,0,0
0:4:52.571,568.029,72.326,0,0.000885,0,0
0:4:54.057,570.493,72.6363,0,0.000885,0,0
0:4:55.548,573.603,73.0362,0,0.000885,0,0
0:4:57.071,575.947,73.3326,0,0.000885,0,0
0:4:58.567,579.408,73.7739,0,0.000885,0,0
0:5:0.053,582.459,74.16,0,0.000885,0,0
0:5:1.554,584.803,74.4565,0,0.000885,0,0
0:5:3.058,587.913,74.8564,0,0.000885,0,0
0:5:4.571,591.08,75.2563,0,0.000885,0,0
0:5:6.065,593.838,75.6079,0,0.000885,0,0
0:5:7.579,596.658,75.9664,0,0.000885,0,0
0:5:9.068,599.531,76.3319,0,0.000885,0,0
0:5:10.568,602.939,76.7662,0,0.000885,0,0
0:5:12.081,605.754,77.1248,0,0.000885,0,0
0:5:13.578,608.748,77.5109,0,0.000885,0,0
0:5:15.069,610.861,77.7798,0,0.000885,0,0
0:5:16.556,614.09,78.1865,0,0.000885,0,0
0:5:18.065,617.026,78.5589,0,0.000885,0,0
0:5:19.554,620.135,78.9588,0,0.000885,0,0
0:5:21.058,623.013,79.3242,0,0.000885,0,0
0:5:22.573,626.71,79.793,0,0.000885,0,0
0:5:24.070,629.761,80.186,0,0.000885,0,0
0:5:25.558,632.23,80.4963,0,0.000885,0,0
0:5:27.083,634.459,80.779,0,0.000885,0,0
0:5:28.580,638.449,81.2892,0,0.000885,0,0
0:5:30.072,641.033,81.6201,0,0.000885,0,0
0:5:31.572,643.911,81.9856,0,0.000885,0,0
0:5:33.085,646.491,82.3165,0,0.000885,0,0
0:5:34.574,649.369,82.6819,0,0.000885,0,0
0:5:36.074,652.892,83.1301,0,0.000885,0,0
0:5:37.581,655.824,83.5024,0,0.000885,0,0
0:5:39.079,658.644,83.8609,0,0.000885,0,0
0:5:40.565,661.402,84.2126,0,0.000885,0,0
0:5:42.066,664.689,84.6331,0,0.000885,0,0
0:5:43.567,667.625,85.0055,0,0.000885,0,0
0:5:45.065,670.618,85.3847,0,0.000885,0,0
0:5:46.564,673.14,85.7087,0,0.000885,0,0
0:5:48.069,676.076,86.081,0,0.000885,0,0
0:5:49.565,678.776,86.4258,0,0.000885,0,0
0:5:51.056,682.242,86.867,0,0.000885,0,0
0:5:52.574,685.293,87.2532,0,0.000885,0,0
0:5:54.069,687.993,87.5979,0,0.000885,0,0
0:5:54.747,665.921,84.7848,0,0.000885,0,0

File: DataFile2021-06-08_033311.csv
Test ID:,Date Tested:,Time:,Test Type:,Diameter Avg. (mm):,Cyl. Corr. Factor:,Height (mm):,Age (days):,Weight (kN):,Break Type:,Ramp Rate (MPa/s):,Load at Break (kN):,Stress at Break (MPa):
12,6/8/2021,03:33,Cylinder,100,1,200,0,3.6,3,0.24,674.9,85.93
Sample Time,Load (kN),Stress (MPa),Long. Strain,Trans. Strain,Chan1 Deflection (mm),Chan2 Deflection (mm)
0:0:12.146,6.80133,0.868739,0,0.000885,0,0
0:0:13.631,9.67933,1.23416,0,0.000885,0,0
0:0:15.138,9.55923,1.22037,0,0.000885,0,0
0:0:16.651,13.3714,1.70301,0,0.000885,0,0
0:0:18.148,15.8935,2.02706,0,0.000885,0,0
0:0:19.653,19.9992,2.54417,0,0.000885,0,0
0:0:21.146,23.7535,3.0268,0,0.000885,0,0
0:0:22.647,26.0977,3.32327,0,0.000885,0,0
0:0:24.153,28.9713,3.6887,0,0.000885,0,0
0:0:25.643,31.9649,4.06791,0,0.000885,0,0
0:0:27.149,34.9541,4.45401,0,0.000885,0,0
0:0:28.666,38.2414,4.8677,0,0.000885,0,0
0:0:30.160,40.5277,5.15728,0,0.000885,0,0
0:0:31.655,43.3435,5.51581,0,0.000885,0,0
0:0:33.160,46.1014,5.86744,0,0.000885,0,0
0:0:34.667,49.3842,6.28802,0,0.000885,0,0
0:0:36.158,52.1999,6.64655,0,0.000885,0,0
0:0:37.658,55.6606,7.08781,0,0.000885,0,0
0:0:39.174,58.8856,7.4946,0,0.000885,0,0
0:0:40.668,61.5812,7.83934,0,0.000885,0,0
0:0:42.160,63.8097,8.12202,0,0.000885,0,0
0:0:43.678,67.4484,8.59087,0,0.000885,0,0
0:0:45.170,69.3834,8.83218,0,0.000885,0,0
0:0:46.662,73.4312,9.34929,0,0.000885,0,0
0:0:48.170,75.8956,9.66645,0,0.000885,0,0
0:0:49.674,78.8848,10.0457,0,0.000885,0,0
0:0:51.164,81.7583,10.4111,0,0.000885,0,0
0:0:52.656,84.9254,10.811,0,0.000885,0,0
0:0:54.174,87.9191,11.1971,0,0.000885,0,0
0:0:55.666,90.9661,11.5832,0,0.000885,0,0
0:0:57.156,93.8975,11.9555,0,0.000885,0,0
0:0:58.674,97.0068,12.3485,0,0.000885,0,0
0:1:0.164,100.116,12.7484,0,0.000885,0,0
0:1:1.654,102.403,13.038,0,0.000885,0,0
0:1:3.166,105.627,13.4517,0,0.000885,0,0
0:1:4.664,108.795,13.8516,0,0.000885,0,0
0:1:6.154,110.734,14.0998,0,0.000885,0,0
0:1:7.660,114.955,14.6376,0,0.000885,0,0
0:1:9.173,117.42,14.9478,0,0.000885,0,0
0:1:10.665,120.058,15.2857,0,0.000885,0,0
0:1:12.158,122.931,15.6511,0,0.000885,0,0
0:1:13.669,126.392,16.0924,0,0.000885,0,0
0:1:15.167,128.678,16.3819,0,0.000885,0,0
0:1:16.660,132.081,16.8163,0,0.000885,0,0
0:1:18.163,135.248,17.2231,0,0.000885,0,0
0:1:19.670,137.655,17.5265,0,0.000885,0,0
0:1:21.160,140.528,17.8919,0,0.000885,0,0
0:1:22.654,143.633,18.2849,0,0.000885,0,0
0:1:24.168,145.924,18.5814,0,0.000885,0,0
0:1:25.660,149.5,19.0364,0,0.000885,0,0
0:1:27.146,151.551,19.2984,0,0.000885,0,0
0:1:28.665,155.599,19.8086,0,0.000885,0,0
0:1:30.155,159.117,20.2568,0,0.000885,0,0
0:1:31.653,161.697,20.5877,0,0.000885,0,0
0:1:33.171,164.046,20.8842,0,0.000885,0,0
0:1:34.675,167.329,21.3048,0,0.000885,0,0
0:1:36.167,170.029,21.6495,0,0.000885,0,0
0:1:37.662,173.018,22.0287,0,0.000885,0,0
0:1:39.175,176.537,22.4769,0,0.000885,0,0
0:1:40.668,178.534,22.732,0,0.000885,0,0
0:1:42.159,183.164,23.3181,0,0.000885,0,0
0:1:43.666,185.629,23.6352,0,0.000885,0,0
0:1:45.163,186.567,23.7524,0,0.000885,0,0
0:1:46.651,191.14,24.3385,0,0.000885,0,0
0:1:48.165,193.431,24.6281,0,0.000885,0,0
0:1:49.655,196.478,25.0142,0,0.000885,0,0
0:1:51.144,199.414,25.3865,0,0.000885,0,0
0:1:52.638,203.048,25.8553,0,0.000885,0,0
0:1:54.140,206.157,26.2483,0,0.000885,0,0
0:1:55.662,208.915,26.6,0,0.000885,0,0
0:1:57.139,212.02,26.993,0,0.000885,0,0
0:1:58.635,214.191,27.2688,0,0.000885,0,0
0:2:0.124,216.771,27.5997,0,0.000885,0,0
0:2:1.605,219.413,27.9376,0,0.000885,0,0
0:2:3.103,222.696,28.3512,0,0.000885,0,0
0:2:4.592,226.334,28.8201,0,0.000885,0,0
0:2:6.070,229.088,29.1717,0,0.000885,0,0
0:2:7.559,232.255,29.5716,0,0.000885,0,0
0:2:9.058,234.484,29.8543,0,0.000885,0,0
0:2:10.559,236.77,30.1439,0,0.000885,0,0
0:2:12.058,240.466,30.6196,0,0.000885,0,0
0:2:13.562,243.869,31.0471,0,0.000885,0,0
0:2:15.057,247.094,31.4608,0,0.000885,0,0
0:2:16.547,249.968,31.8262,0,0.000885,0,0
0:2:18.042,252.784,32.1847,0,0.000885,0,0
0:2:19.544,254.603,32.4191,0,0.000885,0,0
0:2:21.027,258.357,32.8949,0,0.000885,0,0
0:2:22.509,260.937,33.2258,0,0.000885,0,0
0:2:24.015,264.865,33.7223,0,0.000885,0,0
0:2:25.496,267.036,33.998,0,0.000885,0,0
0:2:26.977,269.736,34.3428,0,0.000885,0,0
0:2:28.475,272.903,34.7496,0,0.000885,0,0
0:2:29.964,275.363,35.0598,0,0.000885,0,0
0:2:31.462,279.059,35.5287,0,0.000885,0,0
0:2:32.960,282.048,35.9148,0,0.000885,0,0
0:2:34.459,284.922,36.2802,0,0.000885,0,0
0:2:35.968,286.799,36.5146,0,0.000885,0,0
0:2:37.464,290.322,36.9628,0,0.000885,0,0
0:2:38.965,293.253,37.3351,0,0.000885,0,0
0:2:40.466,296.594,37.7626,0,0.000885,0,0
0:2:41.965,299.001,38.0728,0,0.000885,0,0
0:2:43.470,302.461,38.5072,0,0.000885,0,0
0:2:44.968,305.922,38.9485,0,0.000885,0,0
0:2:46.467,308.675,39.3001,0,0.000885,0,0
0:2:47.965,310.908,39.5828,0,0.000885,0,0
0:2:49.463,313.72,39.9413,0,0.000885,0,0
0:2:50.963,316.656,40.3205,0,0.000885,0,0
0:2:52.471,319.703,40.7066,0,0.000885,0,0
0:2:53.970,322.87,41.1065,0,0.000885,0,0
0:2:55.463,325.334,41.4237,0,0.000885,0,0
0:2:56.963,328.91,41.8788,0,0.000885,0,0
0:2:58.472,331.726,42.2373,0,0.000885,0,0
0:2:59.969,334.368,42.5751,0,0.000885,0,0
0:3:1.467,337.945,43.0302,0,0.000885,0,0
0:3:2.967,340.76,43.3887,0,0.000885,0,0
0:3:4.463,343.283,43.7059,0,0.000885,0,0
0:3:5.959,345.92,44.0437,0,0.000885,0,0
0:3:7.471,349.203,44.4643,0,0.000885,0,0
0:3:8.968,352.139,44.8366,0,0.000885,0,0
0:3:10.469,355.186,45.2227,0,0.000885,0,0
0:3:11.970,357.766,45.5537,0,0.000885,0,0
0:3:13.473,361.347,46.0087,0,0.000885,0,0
0:3:14.971,364.163,46.3672,0,0.000885,0,0
0:3:16.459,367.388,46.774,0,0.000885,0,0
0:3:17.971,369.91,47.0981,0,0.000885,0,0
0:3:19.468,372.605,47.4428,0,0.000885,0,0
0:3:20.968,375.893,47.8565,0,0.000885,0,0
0:3:22.470,378.766,48.2288,0,0.000885,0,0
0:3:23.965,381.991,48.6356,0,0.000885,0,0
0:3:25.465,384.398,48.9459,0,0.000885,0,0
0:3:26.965,387.502,49.3389,0,0.000885,0,0
0:3:28.468,390.145,49.6767,0,0.000885,0,0
0:3:29.965,393.312,50.0766,0,0.000885,0,0
0:3:31.466,396.417,50.4765,0,0.000885,0,0
0:3:32.977,399.646,50.8833,0,0.000885,0,0
0:3:34.475,401.99,51.1798,0,0.000885,0,0
0:3:35.975,405.509,51.6279,0,0.000885,0,0
0:3:37.453,408.147,51.9658,0,0.000885,0,0
0:3:38.958,410.847,52.3105,0,0.000885,0,0
0:3:40.471,413.898,52.6966,0,0.000885,0,0
0:3:41.962,417.239,53.1241,0,0.000885,0,0
0:3:43.470,419.703,53.4413,0,0.000885,0,0
0:3:44.959,422.634,53.8136,0,0.000885,0,0
0:3:46.472,425.979,54.2342,0,0.000885,0,0
0:3:47.983,428.733,54.5858,0,0.000885,0,0
0:3:49.472,432.078,55.0133,0,0.000885,0,0
0:3:50.973,434.836,55.3649,0,0.000885,0,0
0:3:52.473,437.767,55.7372,0,0.000885,0,0
0:3:53.973,440.467,56.082,0,0.000885,0,0
0:3:55.473,443.221,56.4336,0,0.000885,0,0
0:3:56.976,446.682,56.8749,0,0.000885,0,0
0:3:58.477,449.439,57.2265,0,0.000885,0,0
0:3:59.974,452.429,57.6057,0,0.000885,0,0
0:4:1.464,455.071,57.9435,0,0.000885,0,0
0:4:2.981,458.411,58.3641,0,0.000885,0,0
0:4:4.475,461.169,58.7158,0,0.000885,0,0
0:4:5.976,464.572,59.1501,0,0.000885,0,0
0:4:7.475,467.326,59.5018,0,0.000885,0,0
0:4:8.981,470.199,59.8672,0,0.000885,0,0
0:4:10.470,473.135,60.2395,0,0.000885,0,0
0:4:11.972,476.24,60.6394,0,0.000885,0,0
0:4:13.477,479.643,61.0669,0,0.000885,0,0
0:4:14.971,481.929,61.3633,0,0.000885,0,0
0:4:16.473,484.803,61.7288,0,0.000885,0,0
0:4:17.980,487.97,62.1287,0,0.000885,0,0
0:4:19.474,490.786,62.4872,0,0.000885,0,0
0:4:20.963,493.779,62.8664,0,0.000885,0,0
0:4:22.473,496.595,63.2249,0,0.000885,0,0
0:4:23.978,499.762,63.6317,0,0.000885,0,0
0:4:25.468,502.049,63.9213,0,0.000885,0,0
0:4:26.980,505.331,64.3419,0,0.000885,0,0
0:4:28.485,508.441,64.7349,0,0.000885,0,0
0:4:29.976,511.492,65.1279,0,0.000885,0,0
0:4:31.476,514.188,65.4657,0,0.000885,0,0
0:4:32.986,517.061,65.8311,0,0.000885,0,0
0:4:34.477,519.819,66.1828,0,0.000885,0,0
0:4:35.968,523.102,66.6034,0,0.000885,0,0
0:4:37.469,526.389,67.0239,0,0.000885,0,0
0:4:38.976,528.911,67.3411,0,0.000885,0,0
0:4:40.476,532.021,67.741,0,0.000885,0,0
0:4:41.978,535.01,68.1202,0,0.000885,0,0
0:4:43.486,537.826,68.4787,0,0.000885,0,0
0:4:44.976,540.993,68.8786,0,0.000885,0,0
0:4:46.476,544.044,69.2716,0,0.000885,0,0
0:4:47.978,546.504,69.5819,0,0.000885,0,0
0:4:49.476,549.204,69.9266,0,0.000885,0,0
0:4:50.977,552.958,70.4024,0,0.000885,0,0
0:4:52.479,555.596,70.7402,0,0.000885,0,0
0:4:53.988,558.648,71.1263,0,0.000885,0,0
0:4:55.478,561.815,71.5331,0,0.000885,0,0
0:4:56.977,564.453,71.8709,0,0.000885,0,0
0:4:58.483,567.793,72.2915,0,0.000885,0,0
0:4:59.975,570.609,72.6501,0,0.000885,0,0
0:5:1.475,573.073,72.9672,0,0.000885,0,0
0:5:2.986,575.889,73.3257,0,0.000885,0,0
0:5:4.484,579.292,73.7601,0,0.000885,0,0
0:5:5.983,581.872,74.0842,0,0.000885,0,0
0:5:7.478,585.097,74.4979,0,0.000885,0,0
0:5:8.981,587.735,74.8357,0,0.000885,0,0
0:5:10.484,591.551,75.3183,0,0.000885,0,0
0:5:11.981,594.251,75.6631,0,0.000885,0,0
0:5:13.486,596.831,75.994,0,0.000885,0,0
0:5:14.984,599.594,76.3456,0,0.000885,0,0
0:5:16.478,602.294,76.6835,0,0.000885,0,0
0:5:17.993,605.581,77.1041,0,0.000885,0,0
0:5:19.487,608.512,77.4764,0,0.000885,0,0
0:5:20.982,611.568,77.8694,0,0.000885,0,0
0:5:22.488,614.033,78.1797,0,0.000885,0,0
0:5:23.993,617.142,78.5795,0,0.000885,0,0
0:5:25.484,620.429,78.9932,0,0.000885,0,0
0:5:26.982,623.543,79.3931,0,0.000885,0,0
0:5:28.488,626.181,79.731,0,0.000885,0,0
0:5:29.983,628.881,80.0688,0,0.000885,0,0
0:5:31.490,632.11,80.4825,0,0.000885,0,0
0:5:32.988,635.517,80.9169,0,0.000885,0,0
0:5:34.491,637.982,81.2271,0,0.000885,0,0
0:5:35.988,640.74,81.5788,0,0.000885,0,0
0:5:37.483,643.44,81.9235,0,0.000885,0,0
0:5:38.987,646.843,82.3579,0,0.000885,0,0
0:5:40.487,649.543,82.7026,0,0.000885,0,0
0:5:41.985,653.123,83.1577,0,0.000885,0,0
0:5:43.494,656.117,83.5369,0,0.000885,0,0
0:5:44.989,658.644,83.8609,0,0.000885,0,0
0:5:46.486,662.104,84.3022,0,0.000885,0,0
0:5:47.993,664.044,84.5504,0,0.000885,0,0
0:5:49.497,667.211,84.9503,0,0.000885,0,0
0:5:50.985,670.089,85.3157,0,0.000885,0,0
0:5:52.492,672.611,85.6398,0,0.000885,0,0
0:5:53.993,670.97,85.4329,0,0.000885,0,0
0:5:54.967,481.053,61.2461,0,0.000885,0,0