Folder: Experiment-Files (part 64)

File: DataFile2021-06-30_075552.csv
Test ID:,Date Tested:,Time:,Test Type:,Diameter Avg. (mm):,Cyl. Corr. Factor:,Height (mm):,Age (days):,Weight (kN):,Break Type:,Ramp Rate (MPa/s):,Load at Break (kN):,Stress at Break (MPa):
12,6/30/2021,07:55,Cylinder,100,1,200,0,3.6,3,0.25,461.23,58.72
Sample Time,Load (kN),Stress (MPa),Long. Strain,Trans. Strain,Chan1 Deflection (mm),Chan2 Deflection (mm)
0:0:23.821,5.10211,0.648107,0,0.000885,0,0
0:0:24.825,12.4328,1.58579,0,0.000885,0,0
0:0:25.827,11.2006,1.42721,0,0.000885,0,0
0:0:26.828,11.1428,1.42032,0,0.000885,0,0
0:0:27.828,11.9079,1.51685,0,0.000885,0,0
0:0:28.821,14.1943,1.80643,0,0.000885,0,0
0:0:29.836,16.5963,2.11669,0,0.000885,0,0
0:0:30.843,19.412,2.47522,0,0.000885,0,0
0:0:31.840,21.7029,2.7648,0,0.000885,0,0
0:0:32.837,23.6957,3.0199,0,0.000885,0,0
0:0:33.832,24.9278,3.17159,0,0.000885,0,0
0:0:34.833,26.16,3.33017,0,0.000885,0,0
0:0:35.843,28.562,3.63354,0,0.000885,0,0
0:0:36.840,31.2621,3.97827,0,0.000885,0,0
0:0:37.833,32.9035,4.19201,0,0.000885,0,0
0:0:38.827,34.5449,4.39886,0,0.000885,0,0
0:0:39.833,36.5377,4.65396,0,0.000885,0,0
0:0:40.841,38.6506,4.92286,0,0.000885,0,0
0:0:41.836,40.3498,5.13659,0,0.000885,0,0
0:0:42.830,42.9921,5.47444,0,0.000885,0,0
0:0:43.825,44.4555,5.6606,0,0.000885,0,0
0:0:44.836,45.9813,5.85365,0,0.000885,0,0
0:0:45.836,48.2098,6.13633,0,0.000885,0,0
0:0:46.831,50.5585,6.4397,0,0.000885,0,0
0:0:47.825,52.4935,6.68102,0,0.000885,0,0
0:0:48.829,54.3083,6.91544,0,0.000885,0,0
0:0:49.840,55.7184,7.09471,0,0.000885,0,0
0:0:50.846,58.4763,7.44634,0,0.000885,0,0
0:0:51.841,60.2334,7.66697,0,0.000885,0,0
0:0:52.838,62.4041,7.94276,0,0.000885,0,0
0:0:53.834,64.1656,8.17029,0,0.000885,0,0
0:0:54.839,66.1584,8.42539,0,0.000885,0,0
0:0:55.847,68.2713,8.69429,0,0.000885,0,0
0:0:56.840,69.7348,8.88045,0,0.000885,0,0
0:0:57.833,71.9055,9.15624,0,0.000885,0,0
0:0:58.828,74.1341,9.43892,0,0.000885,0,0
0:0:59.841,75.9534,9.67334,0,0.000885,0,0
0:1:0.850,78.1819,9.95603,0,0.000885,0,0
0:1:1.844,79.7655,10.156,0,0.000885,0,0
0:1:2.838,82.1097,10.4525,0,0.000885,0,0
0:1:3.833,83.6933,10.6593,0,0.000885,0,0
0:1:4.844,85.9218,10.942,0,0.000885,0,0
0:1:5.846,88.3862,11.2522,0,0.000885,0,0
0:1:6.840,89.4404,11.3901,0,0.000885,0,0
0:1:7.835,92.0248,11.7142,0,0.000885,0,0
0:1:8.830,93.6084,11.921,0,0.000885,0,0
0:1:9.838,95.4811,12.1555,0,0.000885,0,0
0:1:10.846,97.5362,12.4175,0,0.000885,0,0
0:1:11.842,99.7069,12.6932,0,0.000885,0,0
0:1:12.835,101.406,12.9139,0,0.000885,0,0
0:1:13.837,103.105,13.1276,0,0.000885,0,0
0:1:14.841,104.982,13.3689,0,0.000885,0,0
0:1:15.849,107.447,13.6792,0,0.000885,0,0
0:1:16.844,109.324,13.9205,0,0.000885,0,0
0:1:17.839,111.259,14.1687,0,0.000885,0,0
0:1:18.831,113.43,14.4445,0,0.000885,0,0
0:1:19.843,115.485,14.7065,0,0.000885,0,0
0:1:20.846,117.184,14.9203,0,0.000885,0,0
0:1:21.840,119.59,15.2236,0,0.000885,0,0
0:1:22.834,120.938,15.396,0,0.000885,0,0
0:1:23.831,123.225,15.6925,0,0.000885,0,0
0:1:24.841,125.338,15.9614,0,0.000885,0,0
0:1:25.844,127.037,16.1751,0,0.000885,0,0
0:1:26.839,128.856,16.4095,0,0.000885,0,0
0:1:27.833,131.142,16.6991,0,0.000885,0,0
0:1:28.829,132.668,16.8922,0,0.000885,0,0
0:1:29.843,135.012,17.1886,0,0.000885,0,0
0:1:30.851,137.125,17.4575,0,0.000885,0,0
0:1:31.844,138.357,17.6161,0,0.000885,0,0
0:1:32.839,140.292,17.8643,0,0.000885,0,0
0:1:33.835,143.282,18.2435,0,0.000885,0,0
0:1:34.840,144.807,18.4366,0,0.000885,0,0
0:1:35.846,146.569,18.6641,0,0.000885,0,0
0:1:36.840,148.913,18.9606,0,0.000885,0,0
0:1:37.833,150.323,19.1398,0,0.000885,0,0
0:1:38.828,152.845,19.4639,0,0.000885,0,0
0:1:39.840,154.429,19.6638,0,0.000885,0,0
0:1:40.842,156.715,19.9534,0,0.000885,0,0
0:1:41.837,158.472,20.1741,0,0.000885,0,0
0:1:42.832,160.234,20.4016,0,0.000885,0,0
0:1:43.839,162.462,20.6843,0,0.000885,0,0
0:1:44.844,163.81,20.8566,0,0.000885,0,0
0:1:45.852,166.684,21.2221,0,0.000885,0,0
0:1:46.847,168.503,21.4565,0,0.000885,0,0
0:1:47.841,170.202,21.6702,0,0.000885,0,0
0:1:48.835,171.786,21.8702,0,0.000885,0,0
0:1:49.841,174.135,22.1735,0,0.000885,0,0
0:1:50.848,176.127,22.4286,0,0.000885,0,0
0:1:51.843,178.534,22.732,0,0.000885,0,0
0:1:52.838,179.824,22.8975,0,0.000885,0,0
0:1:53.833,182.404,23.2215,0,0.000885,0,0
0:1:54.838,184.103,23.4422,0,0.000885,0,0
0:1:55.847,186.038,23.6904,0,0.000885,0,0
0:1:56.841,187.857,23.9179,0,0.000885,0,0
0:1:57.833,189.85,24.173,0,0.000885,0,0
0:1:58.825,191.612,24.3937,0,0.000885,0,0
0:1:59.834,193.724,24.6625,0,0.000885,0,0
0:2:0.830,195.597,24.9039,0,0.000885,0,0
0:2:1.836,198.004,25.2072,0,0.000885,0,0
0:2:2.833,199.881,25.4485,0,0.000885,0,0
0:2:3.831,201.464,25.6485,0,0.000885,0,0
0:2:4.835,203.106,25.8622,0,0.000885,0,0
0:2:5.830,205.806,26.207,0,0.000885,0,0
0:2:6.836,207.389,26.4069,0,0.000885,0,0
0:2:7.833,209.791,26.7103,0,0.000885,0,0
0:2:8.830,211.433,26.924,0,0.000885,0,0
0:2:9.834,213.604,27.1998,0,0.000885,0,0
0:2:10.830,215.307,27.4136,0,0.000885,0,0
0:2:11.826,217.184,27.6549,0,0.000885,0,0
0:2:12.835,219.119,27.8962,0,0.000885,0,0
0:2:13.831,221.054,28.1444,0,0.000885,0,0
0:2:14.833,223.519,28.4616,0,0.000885,0,0
0:2:15.831,225.627,28.7305,0,0.000885,0,0
0:2:16.838,227.331,28.9442,0,0.000885,0,0
0:2:17.824,228.679,29.1166,0,0.000885,0,0
0:2:18.831,230.614,29.3648,0,0.000885,0,0
0:2:19.828,232.9,29.6544,0,0.000885,0,0
0:2:20.828,234.719,29.8888,0,0.000885,0,0
0:2:21.836,237.241,30.2059,0,0.000885,0,0
0:2:22.834,238.883,30.4128,0,0.000885,0,0
0:2:23.838,240.587,30.6334,0,0.000885,0,0
0:2:24.835,242.873,30.923,0,0.000885,0,0
0:2:25.836,244.688,31.1574,0,0.000885,0,0
0:2:26.829,246.271,31.3574,0,0.000885,0,0
0:2:27.839,248.326,31.6194,0,0.000885,0,0
0:2:28.835,250.497,31.8951,0,0.000885,0,0
0:2:29.841,253.019,32.2123,0,0.000885,0,0
0:2:30.837,254.661,32.426,0,0.000885,0,0
0:2:31.835,256.711,32.688,0,0.000885,0,0
0:2:32.830,258.415,32.9018,0,0.000885,0,0
0:2:33.838,259.941,33.0948,0,0.000885,0,0
0:2:34.839,262.814,33.4603,0,0.000885,0,0
0:2:35.839,264.104,33.6257,0,0.000885,0,0
0:2:36.838,265.568,33.8119,0,0.000885,0,0
0:2:37.834,268.383,34.1704,0,0.000885,0,0
0:2:38.828,270.318,34.4186,0,0.000885,0,0
0:2:39.845,272.253,34.6668,0,0.000885,0,0
0:2:40.846,274.193,34.9082,0,0.000885,0,0
0:2:41.830,276.301,35.1771,0,0.000885,0,0
0:2:42.827,278.414,35.4459,0,0.000885,0,0
0:2:43.835,280.113,35.6666,0,0.000885,0,0
0:2:44.838,281.817,35.8803,0,0.000885,0,0
0:2:45.830,283.694,36.1216,0,0.000885,0,0
0:2:46.827,285.687,36.3767,0,0.000885,0,0
0:2:47.836,288.209,36.6939,0,0.000885,0,0
0:2:48.842,290.028,36.9283,0,0.000885,0,0
0:2:49.848,292.257,37.211,0,0.000885,0,0
0:2:50.844,293.663,37.3903,0,0.000885,0,0
0:2:51.840,295.246,37.5902,0,0.000885,0,0
0:2:52.840,297.711,37.9074,0,0.000885,0,0
0:2:53.837,299.761,38.1694,0,0.000885,0,0
0:2:54.845,302.11,38.4659,0,0.000885,0,0
0:2:55.844,303.987,38.7072,0,0.000885,0,0
0:2:56.842,305.45,38.8933,0,0.000885,0,0
0:2:57.839,307.679,39.176,0,0.000885,0,0
0:2:58.836,309.263,39.376,0,0.000885,0,0
0:2:59.831,311.376,39.6449,0,0.000885,0,0
0:3:0.833,313.017,39.8517,0,0.000885,0,0
0:3:1.831,315.423,40.162,0,0.000885,0,0
0:3:2.839,317.123,40.3757,0,0.000885,0,0
0:3:3.844,319.115,40.6308,0,0.000885,0,0
0:3:4.843,321.58,40.948,0,0.000885,0,0
0:3:5.844,323.515,41.1893,0,0.000885,0,0
0:3:6.841,325.276,41.4168,0,0.000885,0,0
0:3:7.838,327.389,41.6857,0,0.000885,0,0
0:3:8.831,329.088,41.8994,0,0.000885,0,0
0:3:9.840,330.73,42.1132,0,0.000885,0,0
0:3:10.837,333.43,42.451,0,0.000885,0,0
0:3:11.832,335.307,42.6923,0,0.000885,0,0
0:3:12.842,336.891,42.8923,0,0.000885,0,0
0:3:13.840,338.999,43.1612,0,0.000885,0,0
0:3:14.844,340.818,43.3956,0,0.000885,0,0
0:3:15.839,342.869,43.6576,0,0.000885,0,0
0:3:16.846,344.982,43.9265,0,0.000885,0,0
0:3:17.832,346.859,44.1609,0,0.000885,0,0
0:3:18.841,348.91,44.4229,0,0.000885,0,0
0:3:19.845,350.849,44.6711,0,0.000885,0,0
0:3:20.841,352.664,44.9056,0,0.000885,0,0
0:3:21.838,354.368,45.1193,0,0.000885,0,0
0:3:22.835,356.827,45.4296,0,0.000885,0,0
0:3:23.832,358.531,45.6502,0,0.000885,0,0
0:3:24.832,360.173,45.857,0,0.000885,0,0
0:3:25.833,362.459,46.1466,0,0.000885,0,0
0:3:26.843,364.22,46.3741,0,0.000885,0,0
0:3:27.840,366.155,46.6223,0,0.000885,0,0
0:3:28.834,367.912,46.843,0,0.000885,0,0
0:3:29.850,368.913,46.974,0,0.000885,0,0
0:3:30.852,370.79,47.2084,0,0.000885,0,0
0:3:31.840,373.428,47.5462,0,0.000885,0,0
0:3:32.833,376.008,47.8772,0,0.000885,0,0
0:3:33.842,378.766,48.2288,0,0.000885,0,0
0:3:34.848,381.11,48.5253,0,0.000885,0,0
0:3:35.844,383.281,48.8011,0,0.000885,0,0
0:3:36.841,385.452,49.0769,0,0.000885,0,0
0:3:37.828,386.915,49.263,0,0.000885,0,0
0:3:38.847,388.792,49.5044,0,0.000885,0,0
0:3:39.848,390.202,49.6836,0,0.000885,0,0
0:3:40.848,392.08,49.918,0,0.000885,0,0
0:3:41.835,394.072,50.1731,0,0.000885,0,0
0:3:42.845,395.772,50.3938,0,0.000885,0,0
0:3:43.830,397.769,50.642,0,0.000885,0,0
0:3:44.834,398.294,50.7109,0,0.000885,0,0
0:3:45.837,401.167,51.0764,0,0.000885,0,0
0:3:46.835,403.632,51.3935,0,0.000885,0,0
0:3:47.842,405.745,51.6624,0,0.000885,0,0
0:3:48.838,408.325,51.9865,0,0.000885,0,0
0:3:49.845,409.908,52.1933,0,0.000885,0,0
0:3:50.837,412.372,52.5036,0,0.000885,0,0
0:3:51.845,414.129,52.7311,0,0.000885,0,0
0:3:52.831,415.833,52.9448,0,0.000885,0,0
0:3:53.838,417.474,53.1517,0,0.000885,0,0
0:3:54.846,419.881,53.4619,0,0.000885,0,0
0:3:55.850,421.989,53.7308,0,0.000885,0,0
0:3:56.836,423.279,53.8963,0,0.000885,0,0
0:3:57.832,425.157,54.1307,0,0.000885,0,0
0:3:58.831,427.327,54.4065,0,0.000885,0,0
0:3:59.831,429.089,54.6341,0,0.000885,0,0
0:4:0.831,431.024,54.8823,0,0.000885,0,0
0:4:1.842,433.252,55.165,0,0.000885,0,0
0:4:2.838,434.836,55.3649,0,0.000885,0,0
0:4:3.835,437.007,55.6407,0,0.000885,0,0
0:4:4.831,439.115,55.9096,0,0.000885,0,0
0:4:5.831,440.992,56.1509,0,0.000885,0,0
0:4:6.838,442.927,56.3922,0,0.000885,0,0
0:4:7.846,444.924,56.6473,0,0.000885,0,0
0:4:8.829,445.098,56.6749,0,0.000885,0,0
0:4:9.833,448.443,57.0955,0,0.000885,0,0
0:4:10.838,450.672,57.3782,0,0.000885,0,0
0:4:11.826,452.255,57.585,0,0.000885,0,0
0:4:12.845,454.715,57.8953,0,0.000885,0,0
0:4:13.831,455.654,58.0125,0,0.000885,0,0
0:4:14.833,457.593,58.2607,0,0.000885,0,0
0:4:15.838,460.346,58.6123,0,0.000885,0,0
0:4:16.836,418.529,53.2896,0,0.000885,0,0
0:4:17.843,403.458,51.3728,0,0.000885,0,0
0:4:18.829,389.437,49.5871,0,0.000885,0,0
0:4:19.845,387.796,49.3734,0,0.000885,0,0
0:4:20.841,387.68,49.3596,0,0.000885,0,0
0:4:21.836,382.165,48.6563,0,0.000885,0,0
0:4:22.211,356.827,45.4296,0,0.000885,0,0

File: DataFile2021-06-30_081440.csv
Test ID:,Date Tested:,Time:,Test Type:,Diameter Avg. (mm):,Cyl. Corr. Factor:,Height (mm):,Age (days):,Weight (kN):,Break Type:,Ramp Rate (MPa/s):,Load at Break (kN):,Stress at Break (MPa):
12,6/30/2021,08:14,Cylinder,100,1,200,0,3.6,3,0.25,778.98,99.18
Sample Time,Load (kN),Stress (MPa),Long. Strain,Trans. Strain,Chan1 Deflection (mm),Chan2 Deflection (mm)
0:0:32.803,5.45352,0.69637,0,0.000885,0,0
0:0:34.519,8.67848,1.10316,0,0.000885,0,0
0:0:36.214,11.8456,1.50995,0,0.000885,0,0
0:0:37.923,14.8971,1.89606,0,0.000885,0,0
0:0:39.639,18.7092,2.38559,0,0.000885,0,0
0:0:41.327,22.3479,2.84753,0,0.000885,0,0
0:0:43.020,25.3949,3.23364,0,0.000885,0,0
0:0:44.738,28.4464,3.61975,0,0.000885,0,0
0:0:46.428,32.0806,4.0817,0,0.000885,0,0
0:0:48.121,35.0164,4.46091,0,0.000885,0,0
0:0:49.837,38.5349,4.90907,0,0.000885,0,0
0:0:51.526,42.1113,5.36412,0,0.000885,0,0
0:0:53.219,45.2784,5.76402,0,0.000885,0,0
0:0:54.934,48.9126,6.22597,0,0.000885,0,0
0:0:56.623,51.9063,6.61207,0,0.000885,0,0
0:0:58.323,55.1891,7.02576,0,0.000885,0,0
0:1:0.031,58.8277,7.48771,0,0.000885,0,0
0:1:1.719,61.8748,7.88071,0,0.000885,0,0
0:1:3.427,64.9262,8.26681,0,0.000885,0,0
0:1:5.136,69.0898,8.79771,0,0.000885,0,0
0:1:6.825,72.0834,9.17692,0,0.000885,0,0
0:1:8.530,75.0726,9.55613,0,0.000885,0,0
0:1:10.238,78.4755,9.9905,0,0.000885,0,0
0:1:11.932,82.1097,10.4525,0,0.000885,0,0
0:1:13.625,85.3347,10.8661,0,0.000885,0,0
0:1:15.337,88.9155,11.3212,0,0.000885,0,0
0:1:17.030,91.3754,11.6315,0,0.000885,0,0
0:1:18.733,95.4811,12.1555,0,0.000885,0,0
0:1:20.430,98.8261,12.5829,0,0.000885,0,0
0:1:22.124,102.051,12.9966,0,0.000885,0,0
0:1:23.837,105.276,13.4034,0,0.000885,0,0
0:1:25.536,108.973,13.8723,0,0.000885,0,0
0:1:27.230,111.962,14.2584,0,0.000885,0,0
0:1:28.933,115.191,14.6651,0,0.000885,0,0
0:1:30.636,118.825,15.1271,0,0.000885,0,0
0:1:32.329,121.757,15.4994,0,0.000885,0,0
0:1:34.033,125.338,15.9614,0,0.000885,0,0
0:1:35.733,129.03,16.4302,0,0.000885,0,0
0:1:37.426,131.903,16.7956,0,0.000885,0,0
0:1:39.138,135.426,17.2438,0,0.000885,0,0
0:1:40.837,139.118,17.7126,0,0.000885,0,0
0:1:42.530,141.934,18.0712,0,0.000885,0,0
0:1:44.239,145.51,18.5262,0,0.000885,0,0
0:1:45.935,148.913,18.9606,0,0.000885,0,0
0:1:47.626,152.374,19.4018,0,0.000885,0,0
0:1:49.340,155.19,19.7604,0,0.000885,0,0
0:1:51.035,158.472,20.1741,0,0.000885,0,0
0:1:52.725,161.991,20.6222,0,0.000885,0,0
0:1:54.448,165.394,21.0566,0,0.000885,0,0
0:1:56.140,168.854,21.4979,0,0.000885,0,0
0:1:57.832,172.257,21.9322,0,0.000885,0,0
0:1:59.540,175.425,22.339,0,0.000885,0,0
0:2:1.234,178.827,22.7665,0,0.000885,0,0
0:2:2.928,181.874,23.1595,0,0.000885,0,0
0:2:4.637,185.744,23.649,0,0.000885,0,0
0:2:6.329,188.854,24.0489,0,0.000885,0,0
0:2:8.032,192.141,24.4626,0,0.000885,0,0
0:2:9.735,195.891,24.9452,0,0.000885,0,0
0:2:11.420,198.355,25.2555,0,0.000885,0,0
0:2:13.131,201.994,25.7174,0,0.000885,0,0
0:2:14.834,205.748,26.1932,0,0.000885,0,0
0:2:16.528,209.204,26.6344,0,0.000885,0,0
0:2:18.224,211.789,26.9654,0,0.000885,0,0
0:2:19.929,215.717,27.4687,0,0.000885,0,0
0:2:21.625,219.413,27.9376,0,0.000885,0,0
0:2:23.321,222.58,28.3375,0,0.000885,0,0
0:2:25.027,225.16,28.6684,0,0.000885,0,0
0:2:26.731,228.679,29.1166,0,0.000885,0,0
0:2:28.429,232.606,29.6199,0,0.000885,0,0
0:2:30.133,235.249,29.9508,0,0.000885,0,0
0:2:31.829,239.061,30.4404,0,0.000885,0,0
0:2:33.529,242.401,30.8609,0,0.000885,0,0
0:2:35.227,245.804,31.2953,0,0.000885,0,0
0:2:36.926,248.384,31.6263,0,0.000885,0,0
0:2:38.626,252.49,32.1503,0,0.000885,0,0
0:2:40.322,255.306,32.5088,0,0.000885,0,0
0:2:42.023,259.176,32.9983,0,0.000885,0,0
0:2:43.722,262.049,33.3637,0,0.000885,0,0
0:2:45.431,265.568,33.8119,0,0.000885,0,0
0:2:47.131,268.677,34.2118,0,0.000885,0,0
0:2:48.834,271.786,34.6048,0,0.000885,0,0
0:2:50.532,276.07,35.1495,0,0.000885,0,0
0:2:52.229,279.001,35.5218,0,0.000885,0,0
0:2:53.930,281.991,35.901,0,0.000885,0,0
0:2:55.627,285.336,36.3285,0,0.000885,0,0
0:2:57.337,289.09,36.8111,0,0.000885,0,0
0:2:59.033,292.079,37.1903,0,0.000885,0,0
0:3:0.724,295.362,37.604,0,0.000885,0,0
0:3:2.433,298.649,38.0246,0,0.000885,0,0
0:3:4.140,302.519,38.521,0,0.000885,0,0
0:3:5.832,306.038,38.9692,0,0.000885,0,0
0:3:7.531,308.502,39.2794,0,0.000885,0,0
0:3:9.229,312.256,39.7552,0,0.000885,0,0
0:3:10.930,315.833,40.2102,0,0.000885,0,0
0:3:12.631,318.764,40.5894,0,0.000885,0,0
0:3:14.338,322.576,41.0721,0,0.000885,0,0
0:3:16.040,325.45,41.4375,0,0.000885,0,0
0:3:17.716,328.737,41.8581,0,0.000885,0,0
0:3:19.426,332.371,42.32,0,0.000885,0,0
0:3:21.130,335.832,42.7613,0,0.000885,0,0
0:3:22.832,339.177,43.1819,0,0.000885,0,0
0:3:24.526,342.753,43.6438,0,0.000885,0,0
0:3:26.225,345.453,43.9817,0,0.000885,0,0
0:3:27.928,348.678,44.3953,0,0.000885,0,0
0:3:29.639,352.433,44.8711,0,0.000885,0,0
0:3:31.335,355.773,45.2986,0,0.000885,0,0
0:3:33.025,359.35,45.7536,0,0.000885,0,0
0:3:34.737,362.343,46.1328,0,0.000885,0,0
0:3:36.433,365.684,46.5603,0,0.000885,0,0
0:3:38.129,369.207,47.0085,0,0.000885,0,0
0:3:39.836,372.196,47.3877,0,0.000885,0,0
0:3:41.529,375.657,47.8289,0,0.000885,0,0
0:3:43.226,378.94,48.2495,0,0.000885,0,0
0:3:44.933,382.52,48.7046,0,0.000885,0,0
0:3:46.627,385.51,49.0838,0,0.000885,0,0
0:3:48.324,388.855,49.5113,0,0.000885,0,0
0:3:50.029,392.137,49.9318,0,0.000885,0,0
0:3:51.738,395.42,50.3455,0,0.000885,0,0
0:3:53.431,399.41,50.8557,0,0.000885,0,0
0:3:55.128,402.462,51.2418,0,0.000885,0,0
0:3:56.828,405.745,51.6624,0,0.000885,0,0
0:3:58.526,408.796,52.0485,0,0.000885,0,0
0:4:0.237,412.608,52.5381,0,0.000885,0,0
0:4:1.936,415.891,52.9517,0,0.000885,0,0
0:4:3.640,419.232,53.3792,0,0.000885,0,0
0:4:5.336,422.577,53.8067,0,0.000885,0,0
0:4:7.036,425.922,54.2273,0,0.000885,0,0
0:4:8.736,429.262,54.6547,0,0.000885,0,0
0:4:10.436,431.962,54.9995,0,0.000885,0,0
0:4:12.132,435.774,55.4821,0,0.000885,0,0
0:4:13.838,438.999,55.8958,0,0.000885,0,0
0:4:15.537,442.224,56.3026,0,0.000885,0,0
0:4:17.232,445.569,56.7301,0,0.000885,0,0
0:4:18.939,448.674,57.13,0,0.000885,0,0
0:4:20.637,452.842,57.6609,0,0.000885,0,0
0:4:22.343,455.422,57.9849,0,0.000885,0,0
0:4:24.040,459.234,58.4744,0,0.000885,0,0
0:4:25.737,462.869,58.9364,0,0.000885,0,0
0:4:27.431,465.742,59.3018,0,0.000885,0,0
0:4:29.148,469.381,59.7638,0,0.000885,0,0
0:4:30.834,472.254,60.1292,0,0.000885,0,0
0:4:32.543,475.889,60.5911,0,0.000885,0,0
0:4:34.245,478.882,60.9703,0,0.000885,0,0
0:4:35.932,482.401,61.4185,0,0.000885,0,0
0:4:37.629,486.155,61.9011,0,0.000885,0,0
0:4:39.331,489.086,62.2734,0,0.000885,0,0
0:4:41.019,492.605,62.7216,0,0.000885,0,0
0:4:42.720,495.95,63.1491,0,0.000885,0,0
0:4:44.440,498.824,63.5145,0,0.000885,0,0
0:4:46.140,502.636,63.9971,0,0.000885,0,0
0:4:47.833,505.918,64.4177,0,0.000885,0,0
0:4:49.541,509.321,64.8521,0,0.000885,0,0
0:4:51.239,512.431,65.2451,0,0.000885,0,0
0:4:52.930,515.42,65.6243,0,0.000885,0,0
0:4:54.633,519.583,66.1552,0,0.000885,0,0
0:4:56.341,522.519,66.5275,0,0.000885,0,0
0:4:58.022,525.451,66.8998,0,0.000885,0,0
0:4:59.727,529.614,67.4307,0,0.000885,0,0
0:5:1.432,532.603,67.8168,0,0.000885,0,0
0:5:3.132,535.77,68.2167,0,0.000885,0,0
0:5:4.836,538.822,68.6028,0,0.000885,0,0
0:5:6.543,542.341,69.051,0,0.000885,0,0
0:5:8.236,545.623,69.4716,0,0.000885,0,0
0:5:9.947,549.378,69.9473,0,0.000885,0,0
0:5:11.645,553.252,70.4437,0,0.000885,0,0
0:5:13.351,555.596,70.7402,0,0.000885,0,0
0:5:15.047,558.821,71.1539,0,0.000885,0,0
0:5:16.725,562.282,71.5952,0,0.000885,0,0
0:5:18.438,566.21,72.0916,0,0.000885,0,0
0:5:20.148,569.025,72.4501,0,0.000885,0,0
0:5:21.850,572.838,72.9327,0,0.000885,0,0
0:5:23.540,575.711,73.3051,0,0.000885,0,0
0:5:25.250,579.056,73.7256,0,0.000885,0,0
0:5:26.941,582.81,74.2083,0,0.000885,0,0
0:5:28.633,585.448,74.5392,0,0.000885,0,0
0:5:30.328,589.323,75.0356,0,0.000885,0,0
0:5:32.037,592.432,75.4286,0,0.000885,0,0
0:5:33.747,595.897,75.8699,0,0.000885,0,0
0:5:35.451,599.42,76.3181,0,0.000885,0,0
0:5:37.137,602.823,76.7524,0,0.000885,0,0
0:5:38.838,605.465,77.0903,0,0.000885,0,0
0:5:40.535,609.224,77.566,0,0.000885,0,0
0:5:42.254,612.863,78.0349,0,0.000885,0,0
0:5:43.951,615.621,78.3865,0,0.000885,0,0
0:5:45.650,619.495,78.876,0,0.000885,0,0
0:5:47.337,622.84,79.3035,0,0.000885,0,0
0:5:49.049,626.305,79.7448,0,0.000885,0,0
0:5:50.747,629.766,80.186,0,0.000885,0,0
0:5:52.446,632.586,80.5446,0,0.000885,0,0
0:5:54.147,635.989,80.9789,0,0.000885,0,0
0:5:55.839,639.512,81.4271,0,0.000885,0,0
0:5:57.548,642.741,81.8339,0,0.000885,0,0
0:5:59.257,646.38,82.3027,0,0.000885,0,0
0:6:0.948,649.254,82.6681,0,0.000885,0,0
0:6:2.644,652.777,83.1163,0,0.000885,0,0
0:6:4.353,655.886,83.5093,0,0.000885,0,0
0:6:6.040,659.76,84.0057,0,0.000885,0,0
0:6:7.729,662.638,84.3711,0,0.000885,0,0
0:6:9.457,666.513,84.8607,0,0.000885,0,0
0:6:11.141,669.391,85.2261,0,0.000885,0,0
0:6:12.832,672.028,85.5639,0,0.000885,0,0
0:6:14.545,675.965,86.0673,0,0.000885,0,0
0:6:16.242,679.074,86.4603,0,0.000885,0,0
0:6:17.934,683.064,86.9705,0,0.000885,0,0
0:6:19.643,684.297,87.129,0,0.000885,0,0
0:6:21.336,689.052,87.7358,0,0.000885,0,0
0:6:23.045,692.868,88.2184,0,0.000885,0,0
0:6:24.762,696.565,88.6873,0,0.000885,0,0
0:6:26.455,700.088,89.1354,0,0.000885,0,0
0:6:28.147,702.143,89.3974,0,0.000885,0,0
0:6:29.863,706.195,89.9145,0,0.000885,0,0
0:6:31.550,710.301,90.4385,0,0.000885,0,0
0:6:33.250,712.943,90.7764,0,0.000885,0,0
0:6:34.964,716.76,91.259,0,0.000885,0,0
0:6:36.646,719.402,91.5969,0,0.000885,0,0
0:6:38.351,723.334,92.1002,0,0.000885,0,0
0:6:40.053,725.621,92.3897,0,0.000885,0,0
0:6:41.743,729.615,92.9,0,0.000885,0,0
0:6:43.436,733.432,93.3826,0,0.000885,0,0
0:6:45.152,735.838,93.6929,0,0.000885,0,0
0:6:46.843,739.357,94.141,0,0.000885,0,0
0:6:48.538,742.995,94.603,0,0.000885,0,0
0:6:50.252,745.989,94.9822,0,0.000885,0,0
0:6:51.941,749.161,95.389,0,0.000885,0,0
0:6:53.659,752.741,95.844,0,0.000885,0,0
0:6:55.363,756.144,96.2784,0,0.000885,0,0
0:6:57.055,759.667,96.7265,0,0.000885,0,0
0:6:58.749,762.252,97.0506,0,0.000885,0,0
0:7:0.456,766.651,97.616,0,0.000885,0,0
0:7:2.148,769.645,97.9952,0,0.000885,0,0
0:7:3.845,772.874,98.4089,0,0.000885,0,0
0:7:5.553,776.219,98.8295,0,0.000885,0,0
0:7:7.246,778.919,99.1742,0,0.000885,0,0
0:7:7.568,767.007,97.6573,0,0.000885,0,0