Folder: Experiment-Files (part 40)

File: DataFile2021-06-09_075412.csv
Test ID:,Date Tested:,Time:,Test Type:,Diameter Avg. (mm):,Cyl. Corr. Factor:,Height (mm):,Age (days):,Weight (kN):,Break Type:,Ramp Rate (MPa/s):,Load at Break (kN):,Stress at Break (MPa):
12,6/9/2021,07:54,Cylinder,100,1,200,0,3.6,3,0.25,733.72,93.42
Sample Time,Load (kN),Stress (MPa),Long. Strain,Trans. Strain,Chan1 Deflection (mm),Chan2 Deflection (mm)
0:0:13.160,5.33787,0.682581,0,0.000885,0,0
0:0:14.749,9.32347,1.1859,0,0.000885,0,0
0:0:16.335,10.9693,1.39964,0,0.000885,0,0
0:0:17.924,14.0742,1.79264,0,0.000885,0,0
0:0:19.529,17.0678,2.17185,0,0.000885,0,0
0:0:21.129,20.3506,2.59243,0,0.000885,0,0
0:0:22.720,23.7535,3.0268,0,0.000885,0,0
0:0:24.332,26.805,3.4129,0,0.000885,0,0
0:0:25.933,30.497,3.88175,0,0.000885,0,0
0:0:27.526,34.8963,4.44022,0,0.000885,0,0
0:0:29.129,37.245,4.74359,0,0.000885,0,0
0:0:30.731,39.4735,5.02628,0,0.000885,0,0
0:0:32.321,42.3471,5.3917,0,0.000885,0,0
0:0:33.921,45.3941,5.77781,0,0.000885,0,0
0:0:35.529,49.0327,6.23976,0,0.000885,0,0
0:0:37.124,52.6091,6.7017,0,0.000885,0,0
0:0:38.726,55.4827,7.06713,0,0.000885,0,0
0:0:40.335,58.8856,7.4946,0,0.000885,0,0
0:0:41.925,61.4077,7.81865,0,0.000885,0,0
0:0:43.520,64.8106,8.25302,0,0.000885,0,0
0:0:45.131,67.9154,8.64603,0,0.000885,0,0
0:0:46.722,70.9669,9.03903,0,0.000885,0,0
0:0:48.313,74.1341,9.43892,0,0.000885,0,0
0:0:49.928,77.4168,9.8595,0,0.000885,0,0
0:0:51.520,80.4683,10.2456,0,0.000885,0,0
0:0:53.112,83.7511,10.6662,0,0.000885,0,0
0:0:54.722,86.6869,11.0385,0,0.000885,0,0
0:0:56.322,90.0276,11.466,0,0.000885,0,0
0:0:57.913,93.079,11.8521,0,0.000885,0,0
0:0:59.526,96.0104,12.2244,0,0.000885,0,0
0:1:1.119,99.7069,12.6932,0,0.000885,0,0
0:1:2.710,102.287,13.0242,0,0.000885,0,0
0:1:4.318,105.396,13.4172,0,0.000885,0,0
0:1:5.918,108.737,13.8447,0,0.000885,0,0
0:1:7.511,112.318,14.2997,0,0.000885,0,0
0:1:9.113,115.543,14.7134,0,0.000885,0,0
0:1:10.721,117.945,15.0168,0,0.000885,0,0
0:1:12.313,121.232,15.4374,0,0.000885,0,0
0:1:13.918,124.221,15.8166,0,0.000885,0,0
0:1:15.518,127.33,16.2096,0,0.000885,0,0
0:1:17.107,130.965,16.6784,0,0.000885,0,0
0:1:18.717,134.074,17.0714,0,0.000885,0,0
0:1:20.328,137.183,17.4644,0,0.000885,0,0
0:1:21.921,139.883,17.8092,0,0.000885,0,0
0:1:23.515,143.166,18.2297,0,0.000885,0,0
0:1:25.128,146.097,18.6021,0,0.000885,0,0
0:1:26.719,149.91,19.0847,0,0.000885,0,0
0:1:28.312,153.197,19.5053,0,0.000885,0,0
0:1:29.928,155.599,19.8086,0,0.000885,0,0
0:1:31.522,159.002,20.243,0,0.000885,0,0
0:1:33.116,162.227,20.6567,0,0.000885,0,0
0:1:34.725,164.927,21.0014,0,0.000885,0,0
0:1:36.319,168.619,21.4703,0,0.000885,0,0
0:1:37.912,170.967,21.7667,0,0.000885,0,0
0:1:39.522,175.189,22.3045,0,0.000885,0,0
0:1:41.122,177.653,22.6217,0,0.000885,0,0
0:1:42.715,180.469,22.9802,0,0.000885,0,0
0:1:44.325,184.281,23.4629,0,0.000885,0,0
0:1:45.921,186.683,23.7662,0,0.000885,0,0
0:1:47.512,190.789,24.2902,0,0.000885,0,0
0:1:49.118,193.724,24.6625,0,0.000885,0,0
0:1:50.716,196.714,25.0487,0,0.000885,0,0
0:1:52.303,199.351,25.3796,0,0.000885,0,0
0:1:53.914,203.399,25.8967,0,0.000885,0,0
0:1:55.511,206.744,26.3242,0,0.000885,0,0
0:1:57.099,209.498,26.6758,0,0.000885,0,0
0:1:58.700,212.256,27.0274,0,0.000885,0,0
0:2:0.313,215.481,27.4342,0,0.000885,0,0
0:2:1.900,218.826,27.8617,0,0.000885,0,0
0:2:3.506,221.993,28.2616,0,0.000885,0,0
0:2:5.105,225.334,28.6891,0,0.000885,0,0
0:2:6.695,228.207,29.0545,0,0.000885,0,0
0:2:8.305,231.374,29.4613,0,0.000885,0,0
0:2:9.914,233.959,29.7854,0,0.000885,0,0
0:2:11.512,236.832,30.1508,0,0.000885,0,0
0:2:13.113,241.111,30.7024,0,0.000885,0,0
0:2:14.720,244.105,31.0816,0,0.000885,0,0
0:2:16.311,246.098,31.3367,0,0.000885,0,0
0:2:17.911,250.146,31.8469,0,0.000885,0,0
0:2:19.507,253.544,32.2813,0,0.000885,0,0
0:2:21.106,256.36,32.6398,0,0.000885,0,0
0:2:22.705,259.878,33.0879,0,0.000885,0,0
0:2:24.314,262.107,33.3706,0,0.000885,0,0
0:2:25.909,265.63,33.8188,0,0.000885,0,0
0:2:27.506,269.322,34.2945,0,0.000885,0,0
0:2:29.117,272.138,34.6531,0,0.000885,0,0
0:2:30.719,275.189,35.0392,0,0.000885,0,0
0:2:32.315,278.299,35.4322,0,0.000885,0,0
0:2:33.923,281.346,35.8252,0,0.000885,0,0
0:2:35.517,284.633,36.2388,0,0.000885,0,0
0:2:37.106,287.8,36.6456,0,0.000885,0,0
0:2:38.705,290.553,36.9973,0,0.000885,0,0
0:2:40.309,294.717,37.5282,0,0.000885,0,0
0:2:41.919,297.653,37.9005,0,0.000885,0,0
0:2:43.517,300.175,38.2176,0,0.000885,0,0
0:2:45.119,303.809,38.6796,0,0.000885,0,0
0:2:46.705,306.567,39.0312,0,0.000885,0,0
0:2:48.315,309.556,39.4173,0,0.000885,0,0
0:2:49.921,312.959,39.8448,0,0.000885,0,0
0:2:51.521,316.184,40.2585,0,0.000885,0,0
0:2:53.111,319.178,40.6377,0,0.000885,0,0
0:2:54.710,321.993,40.9962,0,0.000885,0,0
0:2:56.309,325.218,41.4099,0,0.000885,0,0
0:2:57.908,328.973,41.8857,0,0.000885,0,0
0:2:59.516,331.784,42.2442,0,0.000885,0,0
0:3:1.118,335.365,42.6992,0,0.000885,0,0
0:3:2.704,338.412,43.0853,0,0.000885,0,0
0:3:4.311,341.285,43.4508,0,0.000885,0,0
0:3:5.909,343.634,43.7541,0,0.000885,0,0
0:3:7.507,347.21,44.2092,0,0.000885,0,0
0:3:9.098,350.849,44.6711,0,0.000885,0,0
0:3:10.711,353.309,44.9883,0,0.000885,0,0
0:3:12.300,356.89,45.4433,0,0.000885,0,0
0:3:13.911,360.35,45.8777,0,0.000885,0,0
0:3:15.499,363.282,46.2569,0,0.000885,0,0
0:3:17.114,366.507,46.6637,0,0.000885,0,0
0:3:18.713,369.207,47.0085,0,0.000885,0,0
0:3:20.321,372.725,47.4566,0,0.000885,0,0
0:3:21.922,376.417,47.9255,0,0.000885,0,0
0:3:23.508,378.882,48.2426,0,0.000885,0,0
0:3:25.113,381.697,48.6011,0,0.000885,0,0
0:3:26.711,385.158,49.0424,0,0.000885,0,0
0:3:28.308,387.854,49.3803,0,0.000885,0,0
0:3:29.919,391.141,49.8008,0,0.000885,0,0
0:3:31.507,394.424,50.2214,0,0.000885,0,0
0:3:33.104,397.649,50.6282,0,0.000885,0,0
0:3:34.710,400.585,51.0005,0,0.000885,0,0
0:3:36.320,403.867,51.4211,0,0.000885,0,0
0:3:37.898,407.212,51.8486,0,0.000885,0,0
0:3:39.493,410.202,52.2278,0,0.000885,0,0
0:3:41.079,413.311,52.6277,0,0.000885,0,0
0:3:42.658,416.772,53.0621,0,0.000885,0,0
0:3:44.251,419.761,53.4482,0,0.000885,0,0
0:3:45.840,422.519,53.7998,0,0.000885,0,0
0:3:47.420,425.686,54.1997,0,0.000885,0,0
0:3:49.014,428.733,54.5858,0,0.000885,0,0
0:3:50.598,432.136,55.0202,0,0.000885,0,0
0:3:52.178,434.6,55.3373,0,0.000885,0,0
0:3:53.767,438.177,55.7924,0,0.000885,0,0
0:3:55.364,441.579,56.2267,0,0.000885,0,0
0:3:56.948,444.395,56.5853,0,0.000885,0,0
0:3:58.528,447.798,57.0127,0,0.000885,0,0
0:4:0.130,450.436,57.3506,0,0.000885,0,0
0:4:1.714,454.426,57.8608,0,0.000885,0,0
0:4:3.305,457.179,58.2124,0,0.000885,0,0
0:4:4.910,459.586,58.5158,0,0.000885,0,0
0:4:6.513,463.571,59.026,0,0.000885,0,0
0:4:8.113,466.329,59.3776,0,0.000885,0,0
0:4:9.718,469.554,59.7844,0,0.000885,0,0
0:4:11.326,472.139,60.1154,0,0.000885,0,0
0:4:12.921,476.182,60.6325,0,0.000885,0,0
0:4:14.526,479.176,61.0117,0,0.000885,0,0
0:4:16.115,482.401,61.4185,0,0.000885,0,0
0:4:17.714,484.981,61.7494,0,0.000885,0,0
0:4:19.321,487.97,62.1287,0,0.000885,0,0
0:4:20.917,491.373,62.563,0,0.000885,0,0
0:4:22.514,495.243,63.0595,0,0.000885,0,0
0:4:24.117,497.827,63.3835,0,0.000885,0,0
0:4:25.725,500.874,63.7765,0,0.000885,0,0
0:4:27.313,503.806,64.1488,0,0.000885,0,0
0:4:28.922,506.915,64.5418,0,0.000885,0,0
0:4:30.527,509.788,64.9072,0,0.000885,0,0
0:4:32.114,513.191,65.3416,0,0.000885,0,0
0:4:33.721,515.891,65.6864,0,0.000885,0,0
0:4:35.322,519.468,66.1414,0,0.000885,0,0
0:4:36.920,523.396,66.6378,0,0.000885,0,0
0:4:38.512,526.153,66.9895,0,0.000885,0,0
0:4:40.120,528.969,67.348,0,0.000885,0,0
0:4:41.717,532.603,67.8168,0,0.000885,0,0
0:4:43.308,535.419,68.1685,0,0.000885,0,0
0:4:44.913,539.293,68.6649,0,0.000885,0,0
0:4:46.489,541.344,68.9269,0,0.000885,0,0
0:4:48.069,544.92,69.3819,0,0.000885,0,0
0:4:49.672,547.678,69.7336,0,0.000885,0,0
0:4:51.253,551.023,70.1611,0,0.000885,0,0
0:4:52.833,554.191,70.5609,0,0.000885,0,0
0:4:54.433,557.647,71.0022,0,0.000885,0,0
0:4:56.036,560.231,71.3332,0,0.000885,0,0
0:4:57.636,563.278,71.7193,0,0.000885,0,0
0:4:59.236,566.975,72.1881,0,0.000885,0,0
0:5:0.831,569.555,72.5191,0,0.000885,0,0
0:5:2.431,573.193,72.981,0,0.000885,0,0
0:5:4.041,576.361,73.3809,0,0.000885,0,0
0:5:5.625,579.172,73.7394,0,0.000885,0,0
0:5:7.206,582.695,74.1876,0,0.000885,0,0
0:5:8.798,585.275,74.5185,0,0.000885,0,0
0:5:10.390,588.5,74.9322,0,0.000885,0,0
0:5:11.968,591.96,75.3735,0,0.000885,0,0
0:5:13.563,594.776,75.732,0,0.000885,0,0
0:5:15.168,597.534,76.0836,0,0.000885,0,0
0:5:16.756,601.235,76.5525,0,0.000885,0,0
0:5:18.354,603.815,76.8834,0,0.000885,0,0
0:5:19.959,607.516,77.3523,0,0.000885,0,0
0:5:21.545,610.452,77.7246,0,0.000885,0,0
0:5:23.133,613.325,78.09,0,0.000885,0,0
0:5:24.745,617.084,78.5727,0,0.000885,0,0
0:5:26.329,619.548,78.8829,0,0.000885,0,0
0:5:27.925,623.658,79.4069,0,0.000885,0,0
0:5:29.536,626.474,79.7654,0,0.000885,0,0
0:5:31.121,629.001,80.0895,0,0.000885,0,0
0:5:32.729,632.288,80.5032,0,0.000885,0,0
0:5:34.345,635.575,80.9238,0,0.000885,0,0
0:5:35.935,638.92,81.3512,0,0.000885,0,0
0:5:37.529,642.03,81.7442,0,0.000885,0,0
0:5:39.145,645.317,82.1648,0,0.000885,0,0
0:5:40.738,647.959,82.5027,0,0.000885,0,0
0:5:42.320,651.304,82.9232,0,0.000885,0,0
0:5:43.923,654.298,83.3094,0,0.000885,0,0
0:5:45.527,657.821,83.7575,0,0.000885,0,0
0:5:47.129,660.872,84.1436,0,0.000885,0,0
0:5:48.739,664.511,84.6056,0,0.000885,0,0
0:5:50.340,667.447,84.9848,0,0.000885,0,0
0:5:51.928,670.325,85.3502,0,0.000885,0,0
0:5:53.537,673.612,85.7639,0,0.000885,0,0
0:5:55.138,676.192,86.0948,0,0.000885,0,0
0:5:56.731,679.893,86.5637,0,0.000885,0,0
0:5:58.324,682.531,86.9015,0,0.000885,0,0
0:5:59.930,686.174,87.3635,0,0.000885,0,0
0:6:1.527,688.344,87.6393,0,0.000885,0,0
0:6:3.124,692.041,88.115,0,0.000885,0,0
0:6:4.737,695.622,88.5701,0,0.000885,0,0
0:6:6.323,698.206,88.901,0,0.000885,0,0
0:6:7.911,701.493,89.3147,0,0.000885,0,0
0:6:9.523,705.012,89.7628,0,0.000885,0,0
0:6:11.118,707.712,90.1076,0,0.000885,0,0
0:6:12.731,711.293,90.5626,0,0.000885,0,0
0:6:14.345,714.171,90.9281,0,0.000885,0,0
0:6:15.931,717.222,91.3211,0,0.000885,0,0
0:6:17.518,720.51,91.7416,0,0.000885,0,0
0:6:19.125,723.503,92.1209,0,0.000885,0,0
0:6:20.729,727.026,92.569,0,0.000885,0,0
0:6:22.323,729.081,92.831,0,0.000885,0,0
0:6:23.923,733.543,93.3964,0,0.000885,0,0
0:6:25.382,550.143,70.0438,0,0.000885,0,0

File: DataFile2021-06-24_044452.csv
Test ID:,Date Tested:,Time:,Test Type:,Diameter Avg. (mm):,Cyl. Corr. Factor:,Height (mm):,Age (days):,Weight (kN):,Break Type:,Ramp Rate (MPa/s):,Load at Break (kN):,Stress at Break (MPa):
12,6/24/2021,04:44,Cylinder,150,1,300,0,3.6,Invalid/No Break,0.25,1157,65.47
Sample Time,Load (kN),Stress (MPa),Long. Strain,Trans. Strain,Chan1 Deflection (mm),Chan2 Deflection (mm)
0:0:25.879,6.62785,0.372317,0,0.000885,0,0
0:0:27.068,15.1907,0.861845,0,0.000885,0,0
0:0:28.261,15.5999,0.882529,0,0.000885,0,0
0:0:29.452,19.59,1.11006,0,0.000885,0,0
0:0:30.644,26.6271,1.50995,0,0.000885,0,0
0:0:31.851,32.3742,1.83401,0,0.000885,0,0
0:0:33.064,38.0634,2.15116,0,0.000885,0,0
0:0:34.258,42.227,2.39248,0,0.000885,0,0
0:0:35.455,47.9741,2.71653,0,0.000885,0,0
0:0:36.662,54.0192,3.05438,0,0.000885,0,0
0:0:37.870,58.9434,3.33706,0,0.000885,0,0
0:0:39.065,63.4583,3.59217,0,0.000885,0,0
0:0:40.258,68.854,3.89554,0,0.000885,0,0
0:0:41.466,74.7791,4.23338,0,0.000885,0,0
0:0:42.675,79.4141,4.49538,0,0.000885,0,0
0:0:43.867,84.8676,4.80565,0,0.000885,0,0
0:0:45.064,90.5569,5.1228,0,0.000885,0,0
0:0:46.261,96.0104,5.43307,0,0.000885,0,0
0:0:47.475,100.877,5.70886,0,0.000885,0,0
0:0:48.675,106.566,6.03291,0,0.000885,0,0
0:0:49.868,111.788,6.32249,0,0.000885,0,0
0:0:51.060,116.303,6.58449,0,0.000885,0,0
0:0:52.277,122.228,6.91544,0,0.000885,0,0
0:0:53.481,127.624,7.21881,0,0.000885,0,0
0:0:54.673,132.784,7.51529,0,0.000885,0,0
0:0:55.870,138.064,7.81176,0,0.000885,0,0
0:0:57.076,143.989,8.1496,0,0.000885,0,0
0:0:58.281,148.62,8.4116,0,0.000885,0,0
0:0:59.478,153.49,8.68739,0,0.000885,0,0
0:1:0.674,159.117,9.00455,0,0.000885,0,0
0:1:1.882,164.749,9.32171,0,0.000885,0,0
0:1:3.089,169.793,9.61129,0,0.000885,0,0
0:1:4.283,175.189,9.91466,0,0.000885,0,0
0:1:5.477,180.82,10.2318,0,0.000885,0,0
0:1:6.684,186.509,10.5559,0,0.000885,0,0
0:1:7.894,191.434,10.8317,0,0.000885,0,0
0:1:9.079,196.011,11.0937,0,0.000885,0,0
0:1:10.269,201.7,11.4108,0,0.000885,0,0
0:1:11.458,206.918,11.7073,0,0.000885,0,0
0:1:12.666,212.785,12.0382,0,0.000885,0,0
0:1:13.854,217.767,12.3209,0,0.000885,0,0
0:1:15.041,222.402,12.5829,0,0.000885,0,0
0:1:16.230,228.207,12.9139,0,0.000885,0,0
0:1:17.436,233.136,13.1897,0,0.000885,0,0
0:1:18.626,238.709,13.5068,0,0.000885,0,0
0:1:19.816,243.985,13.8102,0,0.000885,0,0
0:1:21.012,249.501,14.1205,0,0.000885,0,0
0:1:22.216,254.189,14.3825,0,0.000885,0,0
0:1:23.416,259.233,14.672,0,0.000885,0,0
0:1:24.614,264.278,14.9547,0,0.000885,0,0
0:1:25.825,269.909,15.2719,0,0.000885,0,0
0:1:27.024,275.776,15.6028,0,0.000885,0,0
0:1:28.227,281.403,15.9269,0,0.000885,0,0
0:1:29.414,286.216,16.1958,0,0.000885,0,0
0:1:30.607,291.376,16.4854,0,0.000885,0,0
0:1:31.818,297.181,16.8163,0,0.000885,0,0
0:1:33.013,302.226,17.1059,0,0.000885,0,0
0:1:34.208,306.803,17.361,0,0.000885,0,0
0:1:35.411,312.256,17.6713,0,0.000885,0,0
0:1:36.620,318.47,18.0229,0,0.000885,0,0
0:1:37.819,323.283,18.2918,0,0.000885,0,0
0:1:39.026,328.617,18.5952,0,0.000885,0,0
0:1:40.211,334.013,18.8985,0,0.000885,0,0
0:1:41.401,338.883,19.1743,0,0.000885,0,0
0:1:42.606,344.221,19.4777,0,0.000885,0,0
0:1:43.805,349.91,19.8017,0,0.000885,0,0
0:1:44.990,354.892,20.0844,0,0.000885,0,0
0:1:46.183,360.408,20.3947,0,0.000885,0,0
0:1:47.387,365.684,20.6912,0,0.000885,0,0
0:1:48.574,370.964,20.9945,0,0.000885,0,0
0:1:49.756,376.008,21.2772,0,0.000885,0,0
0:1:50.944,381.23,21.5737,0,0.000885,0,0
0:1:52.152,386.857,21.8909,0,0.000885,0,0
0:1:53.341,392.08,22.1873,0,0.000885,0,0
0:1:54.529,397.066,22.47,0,0.000885,0,0
0:1:55.714,401.812,22.7389,0,0.000885,0,0
0:1:56.912,407.915,23.0836,0,0.000885,0,0
0:1:58.117,413.547,23.4008,0,0.000885,0,0
0:1:59.306,418.587,23.6904,0,0.000885,0,0
0:2:0.527,423.337,23.9593,0,0.000885,0,0
0:2:1.726,428.675,24.2558,0,0.000885,0,0
0:2:2.929,433.897,24.5522,0,0.000885,0,0
0:2:4.130,439.409,24.8625,0,0.000885,0,0
0:2:5.316,445.334,25.2003,0,0.000885,0,0
0:2:6.524,450.32,25.483,0,0.000885,0,0
0:2:7.721,455.244,25.7588,0,0.000885,0,0
0:2:8.916,460.934,26.0829,0,0.000885,0,0
0:2:10.115,466.036,26.3724,0,0.000885,0,0
0:2:11.312,471.258,26.6689,0,0.000885,0,0
0:2:12.517,476.124,26.9447,0,0.000885,0,0
0:2:13.728,481.991,27.2757,0,0.000885,0,0
0:2:14.931,487.209,27.5721,0,0.000885,0,0
0:2:16.115,492.899,27.8893,0,0.000885,0,0
0:2:17.321,498.236,28.1927,0,0.000885,0,0
0:2:18.520,502.871,28.4547,0,0.000885,0,0
0:2:19.729,508.383,28.7718,0,0.000885,0,0
0:2:20.937,514.014,29.089,0,0.000885,0,0
0:2:22.141,519.704,29.4061,0,0.000885,0,0
0:2:23.332,524.334,29.6681,0,0.000885,0,0
0:2:24.537,529.556,29.9646,0,0.000885,0,0
0:2:25.733,534.658,30.2542,0,0.000885,0,0
0:2:26.941,540.583,30.592,0,0.000885,0,0
0:2:28.131,545.743,30.8816,0,0.000885,0,0
0:2:29.338,550.903,31.1781,0,0.000885,0,0
0:2:30.536,556.477,31.4884,0,0.000885,0,0
0:2:31.737,561.05,31.7504,0,0.000885,0,0
0:2:32.934,566.797,32.0744,0,0.000885,0,0
0:2:34.131,571.783,32.3571,0,0.000885,0,0
0:2:35.312,577.53,32.6811,0,0.000885,0,0
0:2:36.512,582.575,32.9638,0,0.000885,0,0
0:2:37.711,588.442,33.3017,0,0.000885,0,0
0:2:38.900,592.899,33.5499,0,0.000885,0,0
0:2:40.092,598.126,33.8464,0,0.000885,0,0
0:2:41.285,603.526,34.1497,0,0.000885,0,0
0:2:42.497,608.984,34.46,0,0.000885,0,0
0:2:43.695,614.033,34.7496,0,0.000885,0,0
0:2:44.883,619.962,35.0805,0,0.000885,0,0
0:2:46.076,623.779,35.3012,0,0.000885,0,0
0:2:47.287,629.766,35.639,0,0.000885,0,0
0:2:48.483,635.046,35.9355,0,0.000885,0,0
0:2:49.675,640.095,36.2251,0,0.000885,0,0
0:2:50.870,645.731,36.5422,0,0.000885,0,0
0:2:52.083,650.366,36.8042,0,0.000885,0,0
0:2:53.281,656.001,37.1214,0,0.000885,0,0
0:2:54.473,660.227,37.3627,0,0.000885,0,0
0:2:55.661,665.334,37.6523,0,0.000885,0,0
0:2:56.873,670.734,37.9556,0,0.000885,0,0
0:2:58.073,678.131,38.3762,0,0.000885,0,0
0:2:59.263,684.942,38.7623,0,0.000885,0,0
0:3:0.460,690.987,39.1002,0,0.000885,0,0
0:3:1.664,695.448,39.3553,0,0.000885,0,0
0:3:2.864,699.616,39.5897,0,0.000885,0,0
0:3:4.058,704.314,39.8586,0,0.000885,0,0
0:3:5.245,709.714,40.162,0,0.000885,0,0
0:3:6.451,715.287,40.4791,0,0.000885,0,0
0:3:7.657,720.278,40.7618,0,0.000885,0,0
0:3:8.846,725.149,41.0376,0,0.000885,0,0
0:3:10.039,731.194,41.3754,0,0.000885,0,0
0:3:11.243,736.243,41.665,0,0.000885,0,0
0:3:12.455,740.825,41.9201,0,0.000885,0,0
0:3:13.649,746.456,42.2442,0,0.000885,0,0
0:3:14.837,751.211,42.5131,0,0.000885,0,0
0:3:16.039,757.319,42.8578,0,0.000885,0,0
0:3:17.252,762.892,43.1681,0,0.000885,0,0
0:3:18.448,768.528,43.4921,0,0.000885,0,0
0:3:19.642,773.283,43.761,0,0.000885,0,0
0:3:20.844,778.096,44.0299,0,0.000885,0,0
0:3:22.057,783.323,44.3264,0,0.000885,0,0
0:3:23.251,788.545,44.6229,0,0.000885,0,0
0:3:24.444,793.83,44.9193,0,0.000885,0,0
0:3:25.640,800.168,45.2779,0,0.000885,0,0
0:3:26.852,805.684,45.595,0,0.000885,0,0
0:3:28.053,810.559,45.8708,0,0.000885,0,0
0:3:29.238,815.43,46.1466,0,0.000885,0,0
0:3:30.440,820.479,46.4293,0,0.000885,0,0
0:3:31.655,826.173,46.7533,0,0.000885,0,0
0:3:32.855,831.101,47.0291,0,0.000885,0,0
0:3:34.048,836.795,47.3532,0,0.000885,0,0
0:3:35.242,842.137,47.6566,0,0.000885,0,0
0:3:36.447,846.835,47.9186,0,0.000885,0,0
0:3:37.658,852.471,48.2426,0,0.000885,0,0
0:3:38.851,858.396,48.5736,0,0.000885,0,0
0:3:40.039,862.684,48.8149,0,0.000885,0,0
0:3:41.240,868.32,49.1389,0,0.000885,0,0
0:3:42.452,873.835,49.4492,0,0.000885,0,0
0:3:43.639,879,49.7388,0,0.000885,0,0
0:3:44.839,884.751,50.0697,0,0.000885,0,0
0:3:46.044,889.92,50.3593,0,0.000885,0,0
0:3:47.256,895.672,50.6834,0,0.000885,0,0
0:3:48.447,901.13,50.9936,0,0.000885,0,0
0:3:49.640,905.062,51.2143,0,0.000885,0,0
0:3:50.846,910.231,51.5107,0,0.000885,0,0
0:3:52.058,916.156,51.8417,0,0.000885,0,0
0:3:53.260,921.031,52.1175,0,0.000885,0,0
0:3:54.446,926.547,52.4346,0,0.000885,0,0
0:3:55.639,932.476,52.7656,0,0.000885,0,0
0:3:56.850,937.583,53.0552,0,0.000885,0,0
0:3:58.044,942.102,53.3103,0,0.000885,0,0
0:3:59.246,948.032,53.6481,0,0.000885,0,0
0:4:0.440,953.138,53.9377,0,0.000885,0,0
0:4:1.654,958.654,54.248,0,0.000885,0,0
0:4:2.855,964.232,54.5651,0,0.000885,0,0
0:4:4.048,969.454,54.8616,0,0.000885,0,0
0:4:5.236,974.739,55.1581,0,0.000885,0,0
0:4:6.448,979.316,55.4201,0,0.000885,0,0
0:4:7.659,985.89,55.7924,0,0.000885,0,0
0:4:8.848,990.001,56.0199,0,0.000885,0,0
0:4:10.049,995.401,56.3302,0,0.000885,0,0
0:4:11.253,1000.98,56.6404,0,0.000885,0,0
0:4:12.455,1004.32,56.8335,0,0.000885,0,0
0:4:13.644,1011.31,57.2265,0,0.000885,0,0
0:4:14.848,1017.47,57.5781,0,0.000885,0,0
0:4:16.040,1022.34,57.8539,0,0.000885,0,0
0:4:17.253,1028.04,58.178,0,0.000885,0,0
0:4:18.448,1033.67,58.4951,0,0.000885,0,0
0:4:19.644,1038.37,58.7571,0,0.000885,0,0
0:4:20.845,1043.59,59.0536,0,0.000885,0,0
0:4:22.058,1048.94,59.357,0,0.000885,0,0
0:4:23.252,1053.57,59.619,0,0.000885,0,0
0:4:24.443,1059.56,59.9568,0,0.000885,0,0
0:4:25.646,1064.96,60.2671,0,0.000885,0,0
0:4:26.859,1069.83,60.5429,0,0.000885,0,0
0:4:28.060,1074.47,60.8049,0,0.000885,0,0
0:4:29.254,1080.58,61.1496,0,0.000885,0,0
0:4:30.443,1086.15,61.4668,0,0.000885,0,0
0:4:31.662,1091.02,61.7426,0,0.000885,0,0
0:4:32.863,1096.54,62.0528,0,0.000885,0,0
0:4:34.050,1099.71,62.2321,0,0.000885,0,0
0:4:35.249,1107.22,62.6527,0,0.000885,0,0
0:4:36.450,1111.04,62.8733,0,0.000885,0,0
0:4:37.656,1116.56,63.1836,0,0.000885,0,0
0:4:38.845,1123.37,63.5697,0,0.000885,0,0
0:4:40.049,1129.47,63.9144,0,0.000885,0,0
0:4:41.254,1135.52,64.2591,0,0.000885,0,0
0:4:42.464,1139.98,64.5073,0,0.000885,0,0
0:4:43.659,1145.03,64.7969,0,0.000885,0,0
0:4:44.848,1149.37,65.0382,0,0.000885,0,0
0:4:46.048,1154.54,65.3347,0,0.000885,0,0
0:4:47.259,1157,65.4726,0,0.000885,0,0
0:4:48.453,1113.62,63.0181,0,0.000885,0,0
0:4:49.648,1110.57,62.8457,0,0.000885,0,0
0:4:50.847,1115.85,63.1422,0,0.000885,0,0
0:4:52.055,1122.49,63.5214,0,0.000885,0,0
0:4:53.248,924.727,52.3312,0,0.000885,0,0
0:4:54.448,916.685,51.8762,0,0.000885,0,0
0:4:55.645,912.05,51.6142,0,0.000885,0,0
0:4:56.859,904.946,51.2074,0,0.000885,0,0
0:4:58.057,893.617,50.5661,0,0.000885,0,0
0:4:59.240,876.126,49.5802,0,0.000885,0,0
0:5:0.449,822.534,46.5465,0,0.000885,0,0
0:5:0.679,818.66,46.3259,0,0.000885,0,0