Folder: Experiment-Files (part 72)

File: DataFile2021-07-15_051920.csv
Test ID:,Date Tested:,Time:,Test Type:,Diameter Avg. (mm):,Cyl. Corr. Factor:,Height (mm):,Age (days):,Weight (kN):,Break Type:,Ramp Rate (MPa/s):,Load at Break (kN):,Stress at Break (MPa):
12,7/15/2021,05:19,Cylinder,150,1,300,0,3.6,3,0.25,1824.43,103.24
Sample Time,Load (kN),Stress (MPa),Long. Strain,Trans. Strain,Chan1 Deflection (mm),Chan2 Deflection (mm)
0:0:5.943,5.10211,0.28958,0,0.000885,0,0
0:0:7.732,12.3171,0.69637,0,0.000885,0,0
0:0:9.520,19.8257,1.12385,0,0.000885,0,0
0:0:11.310,27.8592,1.5789,0,0.000885,0,0
0:0:13.127,35.7192,2.02016,0,0.000885,0,0
0:0:14.920,44.9849,2.54417,0,0.000885,0,0
0:0:16.727,54.722,3.09575,0,0.000885,0,0
0:0:18.527,60.4113,3.4198,0,0.000885,0,0
0:0:20.320,69.0898,3.90933,0,0.000885,0,0
0:0:22.128,76.1891,4.30922,0,0.000885,0,0
0:0:23.926,83.8134,4.74359,0,0.000885,0,0
0:0:25.720,94.4268,5.34344,0,0.000885,0,0
0:0:27.532,100.997,5.71575,0,0.000885,0,0
0:0:29.325,108.385,6.13633,0,0.000885,0,0
0:0:31.116,116.775,6.60518,0,0.000885,0,0
0:0:32.932,125.275,7.08781,0,0.000885,0,0
0:0:34.723,132.49,7.4946,0,0.000885,0,0
0:0:36.524,140.235,7.93587,0,0.000885,0,0
0:0:38.331,148.268,8.39092,0,0.000885,0,0
0:0:40.123,156.595,8.85976,0,0.000885,0,0
0:0:41.928,164.34,9.30103,0,0.000885,0,0
0:0:43.729,172.724,9.77677,0,0.000885,0,0
0:0:45.519,180.469,10.2111,0,0.000885,0,0
0:0:47.329,187.857,10.6317,0,0.000885,0,0
0:0:49.125,195.775,11.0799,0,0.000885,0,0
0:0:50.901,203.693,11.528,0,0.000885,0,0
0:0:52.708,211.847,11.99,0,0.000885,0,0
0:0:54.495,220.289,12.4657,0,0.000885,0,0
0:0:56.305,227.446,12.8725,0,0.000885,0,0
0:0:58.109,235.542,13.3276,0,0.000885,0,0
0:0:59.909,243.34,13.7688,0,0.000885,0,0
0:1:1.694,251.903,14.2515,0,0.000885,0,0
0:1:3.491,259.118,14.6651,0,0.000885,0,0
0:1:5.299,267.565,15.1409,0,0.000885,0,0
0:1:7.090,275.598,15.5959,0,0.000885,0,0
0:1:8.889,282.693,15.9958,0,0.000885,0,0
0:1:10.700,291.612,16.4992,0,0.000885,0,0
0:1:12.499,299.41,16.9404,0,0.000885,0,0
0:1:14.310,306.683,17.3541,0,0.000885,0,0
0:1:16.097,315.303,17.8436,0,0.000885,0,0
0:1:17.905,323.341,18.2987,0,0.000885,0,0
0:1:19.698,331.023,18.7331,0,0.000885,0,0
0:1:21.500,338.883,19.1743,0,0.000885,0,0
0:1:23.302,347.446,19.6638,0,0.000885,0,0
0:1:25.103,354.955,20.0844,0,0.000885,0,0
0:1:26.907,362.459,20.5119,0,0.000885,0,0
0:1:28.706,371.315,21.0152,0,0.000885,0,0
0:1:30.482,378.472,21.4151,0,0.000885,0,0
0:1:32.284,386.684,21.884,0,0.000885,0,0
0:1:34.067,394.424,22.3183,0,0.000885,0,0
0:1:35.848,402.462,22.7734,0,0.000885,0,0
0:1:37.651,410.259,23.2146,0,0.000885,0,0
0:1:39.434,417.768,23.6421,0,0.000885,0,0
0:1:41.218,425.979,24.1041,0,0.000885,0,0
0:1:43.019,434.013,24.5591,0,0.000885,0,0
0:1:44.804,442.402,25.0349,0,0.000885,0,0
0:1:46.619,449.733,25.4485,0,0.000885,0,0
0:1:48.420,458.411,25.9381,0,0.000885,0,0
0:1:50.206,465.92,26.3656,0,0.000885,0,0
0:1:52.014,474.074,26.8275,0,0.000885,0,0
0:1:53.798,481.284,27.2343,0,0.000885,0,0
0:1:55.578,489.202,27.6825,0,0.000885,0,0
0:1:57.379,497.649,28.1582,0,0.000885,0,0
0:1:59.162,505.273,28.5926,0,0.000885,0,0
0:2:0.938,513.076,29.0338,0,0.000885,0,0
0:2:2.747,521.109,29.4889,0,0.000885,0,0
0:2:4.523,529.436,29.9577,0,0.000885,0,0
0:2:6.312,537.416,30.4128,0,0.000885,0,0
0:2:8.113,545.272,30.854,0,0.000885,0,0
0:2:9.913,552.607,31.2677,0,0.000885,0,0
0:2:11.704,561.459,31.771,0,0.000885,0,0
0:2:13.496,568.91,32.1916,0,0.000885,0,0
0:2:15.271,576.712,32.6329,0,0.000885,0,0
0:2:17.069,584.394,33.0673,0,0.000885,0,0
0:2:18.857,592.899,33.5499,0,0.000885,0,0
0:2:20.648,600.354,33.9705,0,0.000885,0,0
0:2:22.457,607.987,34.4048,0,0.000885,0,0
0:2:24.249,616.497,34.8875,0,0.000885,0,0
0:2:26.038,624.13,35.3218,0,0.000885,0,0
0:2:27.846,632.346,35.7838,0,0.000885,0,0
0:2:29.633,639.392,36.1837,0,0.000885,0,0
0:2:31.433,647.901,36.6663,0,0.000885,0,0
0:2:33.235,656.237,37.1352,0,0.000885,0,0
0:2:35.025,663.692,37.5557,0,0.000885,0,0
0:2:36.824,671.735,38.0108,0,0.000885,0,0
0:2:38.624,679.599,38.459,0,0.000885,0,0
0:2:40.420,688.113,38.9416,0,0.000885,0,0
0:2:42.234,695.27,39.3415,0,0.000885,0,0
0:2:44.020,703.549,39.8103,0,0.000885,0,0
0:2:45.827,711.355,40.2516,0,0.000885,0,0
0:2:47.639,719.985,40.7411,0,0.000885,0,0
0:2:49.430,727.324,41.1548,0,0.000885,0,0
0:2:51.221,735.424,41.6168,0,0.000885,0,0
0:2:53.030,743.289,42.0649,0,0.000885,0,0
0:2:54.814,750.744,42.4855,0,0.000885,0,0
0:2:56.623,759.432,42.975,0,0.000885,0,0
0:2:58.427,767.59,43.437,0,0.000885,0,0
0:3:0.210,775.16,43.8644,0,0.000885,0,0
0:3:2.019,783.323,44.3264,0,0.000885,0,0
0:3:3.819,791.361,44.7814,0,0.000885,0,0
0:3:5.626,798.465,45.1813,0,0.000885,0,0
0:3:7.441,806.979,45.664,0,0.000885,0,0
0:3:9.228,815.604,46.1535,0,0.000885,0,0
0:3:11.027,822.828,46.5603,0,0.000885,0,0
0:3:12.840,831.515,47.0567,0,0.000885,0,0
0:3:14.626,838.614,47.4566,0,0.000885,0,0
0:3:16.426,846.657,47.9117,0,0.000885,0,0
0:3:18.226,854.641,48.3598,0,0.000885,0,0
0:3:20.011,862.154,48.7873,0,0.000885,0,0
0:3:21.814,871.077,49.2906,0,0.000885,0,0
0:3:23.619,878.181,49.6974,0,0.000885,0,0
0:3:25.406,885.868,50.1318,0,0.000885,0,0
0:3:27.215,894.675,50.6282,0,0.000885,0,0
0:3:29.006,902.713,51.0833,0,0.000885,0,0
0:3:30.826,909.644,51.4763,0,0.000885,0,0
0:3:32.635,918.269,51.9658,0,0.000885,0,0
0:3:34.434,926.08,52.4071,0,0.000885,0,0
0:3:36.229,934.18,52.8621,0,0.000885,0,0
0:3:38.033,942.044,53.3103,0,0.000885,0,0
0:3:39.817,950.847,53.8067,0,0.000885,0,0
0:3:41.619,957.6,54.1859,0,0.000885,0,0
0:3:43.431,966.696,54.703,0,0.000885,0,0
0:3:45.227,973.742,55.1029,0,0.000885,0,0
0:3:47.031,981.665,55.5511,0,0.000885,0,0
0:3:48.824,989.591,55.9992,0,0.000885,0,0
0:3:50.619,997.807,56.4612,0,0.000885,0,0
0:3:52.433,1005.79,56.9162,0,0.000885,0,0
0:3:54.228,1013.36,57.3437,0,0.000885,0,0
0:3:56.027,1021.7,57.8194,0,0.000885,0,0
0:3:57.835,1029.62,58.2676,0,0.000885,0,0
0:3:59.623,1037.49,58.7089,0,0.000885,0,0
0:4:1.440,1045.59,59.1708,0,0.000885,0,0
0:4:3.242,1053.51,59.619,0,0.000885,0,0
0:4:5.028,1061.15,60.0464,0,0.000885,0,0
0:4:6.840,1069.6,60.5291,0,0.000885,0,0
0:4:8.636,1076.99,60.9428,0,0.000885,0,0
0:4:10.423,1084.39,61.3633,0,0.000885,0,0
0:4:12.233,1093.43,61.8736,0,0.000885,0,0
0:4:14.030,1100.53,62.2803,0,0.000885,0,0
0:4:15.814,1109.34,62.7768,0,0.000885,0,0
0:4:17.626,1116.67,63.1905,0,0.000885,0,0
0:4:19.415,1124.83,63.6524,0,0.000885,0,0
0:4:21.205,1133.4,64.135,0,0.000885,0,0
0:4:23.013,1140.56,64.5418,0,0.000885,0,0
0:4:24.798,1149.02,65.0245,0,0.000885,0,0
0:4:26.599,1157.18,65.4795,0,0.000885,0,0
0:4:28.395,1164.4,65.8932,0,0.000885,0,0
0:4:30.187,1172.15,66.3276,0,0.000885,0,0
0:4:31.986,1181.19,66.8447,0,0.000885,0,0
0:4:33.783,1188.23,67.2377,0,0.000885,0,0
0:4:35.570,1196.5,67.7065,0,0.000885,0,0
0:4:37.380,1203.67,68.1133,0,0.000885,0,0
0:4:39.169,1212.82,68.6304,0,0.000885,0,0
0:4:40.960,1220.22,69.051,0,0.000885,0,0
0:4:42.768,1228.5,69.5198,0,0.000885,0,0
0:4:44.551,1235.01,69.8853,0,0.000885,0,0
0:4:46.349,1243.05,70.3403,0,0.000885,0,0
0:4:48.150,1252.5,70.8781,0,0.000885,0,0
0:4:49.935,1259.08,71.2504,0,0.000885,0,0
0:4:51.737,1268.29,71.7675,0,0.000885,0,0
0:4:53.543,1276.16,72.2157,0,0.000885,0,0
0:4:55.337,1283.44,72.6294,0,0.000885,0,0
0:4:57.151,1292.24,73.1258,0,0.000885,0,0
0:4:58.939,1300.11,73.574,0,0.000885,0,0
0:5:0.736,1307.27,73.9739,0,0.000885,0,0
0:5:2.547,1315.31,74.4289,0,0.000885,0,0
0:5:4.337,1323.59,74.8977,0,0.000885,0,0
0:5:6.135,1330.98,75.3183,0,0.000885,0,0
0:5:7.943,1339.38,75.7941,0,0.000885,0,0
0:5:9.742,1347.95,76.2767,0,0.000885,0,0
0:5:11.550,1354.4,76.6421,0,0.000885,0,0
0:5:13.349,1362.98,77.1316,0,0.000885,0,0
0:5:15.138,1370.9,77.5798,0,0.000885,0,0
0:5:16.957,1378.71,78.0211,0,0.000885,0,0
0:5:18.746,1387.45,78.5106,0,0.000885,0,0
0:5:20.540,1394.03,78.8829,0,0.000885,0,0
0:5:22.352,1402.83,79.3862,0,0.000885,0,0
0:5:24.139,1411.05,79.8482,0,0.000885,0,0
0:5:25.944,1418.21,80.255,0,0.000885,0,0
0:5:27.757,1427.02,80.7514,0,0.000885,0,0
0:5:29.541,1434.82,81.1927,0,0.000885,0,0
0:5:31.350,1442.63,81.6339,0,0.000885,0,0
0:5:33.149,1450.79,82.0959,0,0.000885,0,0
0:5:34.942,1458.42,82.5302,0,0.000885,0,0
0:5:36.746,1466.11,82.9646,0,0.000885,0,0
0:5:38.539,1474.51,83.4404,0,0.000885,0,0
0:5:40.345,1482.68,83.9023,0,0.000885,0,0
0:5:42.152,1490.86,84.3643,0,0.000885,0,0
0:5:43.942,1497.75,84.7573,0,0.000885,0,0
0:5:45.735,1505.99,85.2192,0,0.000885,0,0
0:5:47.559,1514.36,85.6949,0,0.000885,0,0
0:5:49.343,1521.54,86.1017,0,0.000885,0,0
0:5:51.149,1530.66,86.6188,0,0.000885,0,0
0:5:52.950,1537.91,87.0256,0,0.000885,0,0
0:5:54.746,1545.74,87.4738,0,0.000885,0,0
0:5:56.546,1554.28,87.9564,0,0.000885,0,0
0:5:58.341,1561.99,88.3908,0,0.000885,0,0
0:6:0.140,1570,88.8458,0,0.000885,0,0
0:6:1.954,1578.3,89.3147,0,0.000885,0,0
0:6:3.749,1586.43,89.7766,0,0.000885,0,0
0:6:5.546,1593.79,90.1903,0,0.000885,0,0
0:6:7.358,1601.68,90.6385,0,0.000885,0,0
0:6:9.142,1610.04,91.1073,0,0.000885,0,0
0:6:10.950,1617.4,91.5279,0,0.000885,0,0
0:6:12.760,1625.64,91.9899,0,0.000885,0,0
0:6:14.547,1633.59,92.4449,0,0.000885,0,0
0:6:16.349,1641.9,92.9137,0,0.000885,0,0
0:6:18.153,1649.2,93.3274,0,0.000885,0,0
0:6:19.949,1657.44,93.7894,0,0.000885,0,0
0:6:21.759,1664.86,94.21,0,0.000885,0,0
0:6:23.554,1673.51,94.6995,0,0.000885,0,0
0:6:25.352,1681.29,95.1408,0,0.000885,0,0
0:6:27.164,1689.12,95.582,0,0.000885,0,0
0:6:28.950,1697.3,96.0509,0,0.000885,0,0
0:6:30.744,1704.72,96.4645,0,0.000885,0,0
0:6:32.560,1712.85,96.9265,0,0.000885,0,0
0:6:34.352,1721.09,97.3953,0,0.000885,0,0
0:6:36.153,1729.57,97.8711,0,0.000885,0,0
0:6:37.963,1736.99,98.2917,0,0.000885,0,0
0:6:39.750,1745.47,98.7743,0,0.000885,0,0
0:6:41.553,1752.77,99.188,0,0.000885,0,0
0:6:43.350,1761.14,99.6568,0,0.000885,0,0
0:6:45.151,1769.08,100.112,0,0.000885,0,0
0:6:46.963,1775.85,100.491,0,0.000885,0,0
0:6:48.754,1785.28,101.029,0,0.000885,0,0
0:6:50.551,1792.7,101.443,0,0.000885,0,0
0:6:52.364,1800.17,101.87,0,0.000885,0,0
0:6:54.150,1808.24,102.325,0,0.000885,0,0
0:6:55.958,1816.19,102.773,0,0.000885,0,0
0:6:57.766,1822.73,103.146,0,0.000885,0,0
0:6:59.554,1822.73,103.146,0,0.000885,0,0
0:7:0.372,1751.83,99.1328,0,0.000885,0,0

File: DataFile2021-07-15_053054.csv
Test ID:,Date Tested:,Time:,Test Type:,Diameter Avg. (mm):,Cyl. Corr. Factor:,Height (mm):,Age (days):,Weight (kN):,Break Type:,Ramp Rate (MPa/s):,Load at Break (kN):,Stress at Break (MPa):
12,7/15/2021,05:30,Cylinder,150,1,300,0,3.6,3,0.25,1709.08,96.71
Sample Time,Load (kN),Stress (MPa),Long. Strain,Trans. Strain,Chan1 Deflection (mm),Chan2 Deflection (mm)
0:0:11.699,5.57362,0.317159,0,0.000885,0,0
0:0:13.386,13.6649,0.772213,0,0.000885,0,0
0:0:15.096,19.8836,1.12385,0,0.000885,0,0
0:0:16.790,27.1564,1.53753,0,0.000885,0,0
0:0:18.501,34.7228,1.96501,0,0.000885,0,0
0:0:20.197,43.9885,2.48901,0,0.000885,0,0
0:0:21.891,50.9677,2.88201,0,0.000885,0,0
0:0:23.603,57.8892,3.27501,0,0.000885,0,0
0:0:25.296,65.4556,3.70248,0,0.000885,0,0
0:0:26.991,72.7863,4.11617,0,0.000885,0,0
0:0:28.703,80.4683,4.55054,0,0.000885,0,0
0:0:30.395,87.9191,4.97801,0,0.000885,0,0
0:0:32.089,95.6012,5.41238,0,0.000885,0,0
0:0:33.804,102.874,5.81918,0,0.000885,0,0
0:0:35.496,110.792,6.26733,0,0.000885,0,0
0:0:37.189,117.184,6.63276,0,0.000885,0,0
0:0:38.907,125.631,7.10849,0,0.000885,0,0
0:0:40.598,133.313,7.54286,0,0.000885,0,0
0:0:42.299,140.235,7.93587,0,0.000885,0,0
0:0:44.008,147.975,8.37713,0,0.000885,0,0
0:0:45.697,155.657,8.8115,0,0.000885,0,0
0:0:47.398,163.223,9.23897,0,0.000885,0,0
0:0:49.108,170.202,9.63198,0,0.000885,0,0
0:0:50.798,178.182,10.0801,0,0.000885,0,0
0:0:52.495,185.099,10.4731,0,0.000885,0,0
0:0:54.202,192.844,10.9144,0,0.000885,0,0
0:0:55.882,200.877,11.3695,0,0.000885,0,0
0:0:57.590,208.328,11.79,0,0.000885,0,0
0:0:59.290,215.187,12.1761,0,0.000885,0,0
0:1:0.990,222.874,12.6105,0,0.000885,0,0
0:1:2.681,231.437,13.0931,0,0.000885,0,0
0:1:4.393,238.825,13.5137,0,0.000885,0,0
0:1:6.082,245.689,13.8998,0,0.000885,0,0
0:1:7.796,253.313,14.3342,0,0.000885,0,0
0:1:9.486,260.759,14.7548,0,0.000885,0,0
0:1:11.185,268.797,15.2098,0,0.000885,0,0
0:1:12.879,275.131,15.5684,0,0.000885,0,0
0:1:14.578,282.813,16.0027,0,0.000885,0,0
0:1:16.261,290.905,16.4647,0,0.000885,0,0
0:1:17.955,298.12,16.8715,0,0.000885,0,0
0:1:19.645,305.744,17.2989,0,0.000885,0,0
0:1:21.329,312.901,17.7057,0,0.000885,0,0
0:1:23.029,320.054,18.1125,0,0.000885,0,0
0:1:24.713,328.034,18.5607,0,0.000885,0,0
0:1:26.396,335.774,19.002,0,0.000885,0,0
0:1:28.098,342.811,19.4018,0,0.000885,0,0
0:1:29.789,350.084,19.8086,0,0.000885,0,0
0:1:31.482,358.06,20.2637,0,0.000885,0,0
0:1:33.194,365.332,20.6705,0,0.000885,0,0
0:1:34.873,372.663,21.0911,0,0.000885,0,0
0:1:36.554,380.292,21.5185,0,0.000885,0,0
0:1:38.258,388.032,21.9598,0,0.000885,0,0
0:1:39.941,395.247,22.3666,0,0.000885,0,0
0:1:41.622,402.577,22.7803,0,0.000885,0,0
0:1:43.332,409.792,23.1871,0,0.000885,0,0
0:1:45.011,417.59,23.6283,0,0.000885,0,0
0:1:46.697,425.335,24.0696,0,0.000885,0,0
0:1:48.404,432.55,24.4764,0,0.000885,0,0
0:1:50.084,439.587,24.8763,0,0.000885,0,0
0:1:51.761,447.798,25.3382,0,0.000885,0,0
0:1:53.468,454.657,25.7312,0,0.000885,0,0
0:1:55.149,462.753,26.1863,0,0.000885,0,0
0:1:56.832,469.848,26.5862,0,0.000885,0,0
0:1:58.533,477.824,27.0412,0,0.000885,0,0
0:2:0.214,484.629,27.4273,0,0.000885,0,0
0:2:1.898,492.841,27.8893,0,0.000885,0,0
0:2:3.600,499.642,28.2754,0,0.000885,0,0
0:2:5.286,507.329,28.7098,0,0.000885,0,0
0:2:7.001,514.775,29.1303,0,0.000885,0,0
0:2:8.705,522.283,29.5578,0,0.000885,0,0
0:2:10.391,530.143,29.9991,0,0.000885,0,0
0:2:12.094,537.06,30.3921,0,0.000885,0,0
0:2:13.799,544.747,30.8265,0,0.000885,0,0
0:2:15.483,552.02,31.2401,0,0.000885,0,0
0:2:17.184,560.231,31.7021,0,0.000885,0,0
0:2:18.882,566.917,32.0813,0,0.000885,0,0
0:2:20.600,575.244,32.5501,0,0.000885,0,0
0:2:22.289,581.988,32.9363,0,0.000885,0,0
0:2:23.987,589.674,33.3706,0,0.000885,0,0
0:2:25.693,597.303,33.7981,0,0.000885,0,0
0:2:27.402,605.345,34.2532,0,0.000885,0,0
0:2:29.106,612.622,34.6668,0,0.000885,0,0
0:2:30.805,619.611,35.0598,0,0.000885,0,0
0:2:32.510,627.239,35.4942,0,0.000885,0,0
0:2:34.207,634.81,35.9217,0,0.000885,0,0
0:2:35.893,642.501,36.3561,0,0.000885,0,0
0:2:37.606,650.192,36.7904,0,0.000885,0,0
0:2:39.304,657.763,37.2248,0,0.000885,0,0
0:2:41.003,665.103,37.6385,0,0.000885,0,0
0:2:42.703,672.495,38.0522,0,0.000885,0,0
0:2:44.401,679.541,38.4521,0,0.000885,0,0
0:2:46.097,687.82,38.9209,0,0.000885,0,0
0:2:47.807,695.155,39.3346,0,0.000885,0,0
0:2:49.506,702.374,39.7483,0,0.000885,0,0
0:2:51.194,710.123,40.1826,0,0.000885,0,0
0:2:52.914,717.872,40.6239,0,0.000885,0,0
0:2:54.604,724.918,41.0238,0,0.000885,0,0
0:2:56.304,732.489,41.4513,0,0.000885,0,0
0:2:58.011,739.708,41.8581,0,0.000885,0,0
0:2:59.705,747.515,42.2993,0,0.000885,0,0
0:3:1.390,754.619,42.6992,0,0.000885,0,0
0:3:3.108,762.367,43.1405,0,0.000885,0,0
0:3:4.792,769.938,43.568,0,0.000885,0,0
0:3:6.479,777.803,44.0161,0,0.000885,0,0
0:3:8.194,784.377,44.3884,0,0.000885,0,0
0:3:9.892,792.304,44.8366,0,0.000885,0,0
0:3:11.586,800.053,45.271,0,0.000885,0,0
0:3:13.300,807.272,45.6847,0,0.000885,0,0
0:3:14.999,815.137,46.1259,0,0.000885,0,0
0:3:16.705,822.885,46.5672,0,0.000885,0,0
0:3:18.417,830.047,46.974,0,0.000885,0,0
0:3:20.107,837.912,47.4152,0,0.000885,0,0
0:3:21.794,844.78,47.8014,0,0.000885,0,0
0:3:23.499,852.995,48.2702,0,0.000885,0,0
0:3:25.197,859.276,48.6218,0,0.000885,0,0
0:3:26.909,867.203,49.0769,0,0.000885,0,0
0:3:28.617,875.712,49.5526,0,0.000885,0,0
0:3:30.305,882.407,49.9318,0,0.000885,0,0
0:3:31.991,890.565,50.3938,0,0.000885,0,0
0:3:33.697,897.727,50.8006,0,0.000885,0,0
0:3:35.393,905.355,51.2349,0,0.000885,0,0
0:3:37.082,912.281,51.6279,0,0.000885,0,0
0:3:38.810,920.382,52.083,0,0.000885,0,0
0:3:40.496,928.308,52.5312,0,0.000885,0,0
0:3:42.203,935.234,52.9242,0,0.000885,0,0
0:3:43.912,943.099,53.3654,0,0.000885,0,0
0:3:45.598,950.38,53.7791,0,0.000885,0,0
0:3:47.312,957.128,54.1652,0,0.000885,0,0
0:3:49.010,965.464,54.6341,0,0.000885,0,0
0:3:50.711,972.919,55.0546,0,0.000885,0,0
0:3:52.421,980.433,55.4821,0,0.000885,0,0
0:3:54.118,987.358,55.8751,0,0.000885,0,0
0:3:55.811,996.224,56.3715,0,0.000885,0,0
0:3:57.521,1002.91,56.7507,0,0.000885,0,0
0:3:59.219,1010.66,57.192,0,0.000885,0,0
0:4:0.910,1017.47,57.5781,0,0.000885,0,0
0:4:2.610,1025.4,58.0263,0,0.000885,0,0
0:4:4.309,1033.2,58.4675,0,0.000885,0,0
0:4:6.017,1040.31,58.8674,0,0.000885,0,0
0:4:7.725,1048.29,59.3225,0,0.000885,0,0
0:4:9.416,1055.16,59.7086,0,0.000885,0,0
0:4:11.104,1062.96,60.1499,0,0.000885,0,0
0:4:12.816,1070.59,60.5842,0,0.000885,0,0
0:4:14.504,1077.88,60.9979,0,0.000885,0,0
0:4:16.192,1085.27,61.4116,0,0.000885,0,0
0:4:17.901,1092.26,61.8115,0,0.000885,0,0
0:4:19.596,1101.18,62.3148,0,0.000885,0,0
0:4:21.283,1107.22,62.6527,0,0.000885,0,0
0:4:22.994,1115.15,63.1077,0,0.000885,0,0
0:4:24.701,1122.6,63.5283,0,0.000885,0,0
0:4:26.405,1130.94,63.9971,0,0.000885,0,0
0:4:28.122,1137.81,64.3832,0,0.000885,0,0
0:4:29.812,1145.08,64.7969,0,0.000885,0,0
0:4:31.504,1153.24,65.2589,0,0.000885,0,0
0:4:33.216,1160.99,65.7001,0,0.000885,0,0
0:4:34.905,1168.27,66.1138,0,0.000885,0,0
0:4:36.591,1174.85,66.4792,0,0.000885,0,0
0:4:38.303,1183.18,66.955,0,0.000885,0,0
0:4:39.993,1190.52,67.3687,0,0.000885,0,0
0:4:41.682,1198.09,67.7961,0,0.000885,0,0
0:4:43.392,1205.66,68.2236,0,0.000885,0,0
0:4:45.109,1212.76,68.6304,0,0.000885,0,0
0:4:46.800,1221.04,69.0993,0,0.000885,0,0
0:4:48.518,1227.38,69.4578,0,0.000885,0,0
0:4:50.206,1235.72,69.9266,0,0.000885,0,0
0:4:51.895,1242.58,70.3127,0,0.000885,0,0
0:4:53.618,1250.98,70.7885,0,0.000885,0,0
0:4:55.304,1258.84,71.2366,0,0.000885,0,0
0:4:57.004,1265.95,71.6365,0,0.000885,0,0
0:4:58.718,1273.34,72.0571,0,0.000885,0,0
0:5:0.409,1280.44,72.457,0,0.000885,0,0
0:5:2.119,1288.08,72.8914,0,0.000885,0,0
0:5:3.825,1296.35,73.3602,0,0.000885,0,0
0:5:5.518,1302.92,73.7325,0,0.000885,0,0
0:5:7.218,1311.44,74.2152,0,0.000885,0,0
0:5:8.924,1318.54,74.6151,0,0.000885,0,0
0:5:10.609,1325.76,75.0219,0,0.000885,0,0
0:5:12.316,1333.04,75.4355,0,0.000885,0,0
0:5:14.024,1340.9,75.8768,0,0.000885,0,0
0:5:15.709,1348.71,76.3181,0,0.000885,0,0
0:5:17.423,1356.05,76.7386,0,0.000885,0,0
0:5:19.121,1363.74,77.173,0,0.000885,0,0
0:5:20.820,1370.72,77.566,0,0.000885,0,0
0:5:22.529,1378.82,78.028,0,0.000885,0,0
0:5:24.227,1385.87,78.421,0,0.000885,0,0
0:5:25.914,1393.56,78.8622,0,0.000885,0,0
0:5:27.613,1400.42,79.2483,0,0.000885,0,0
0:5:29.312,1408.35,79.6965,0,0.000885,0,0
0:5:31.003,1416.16,80.1378,0,0.000885,0,0
0:5:32.711,1423.61,80.5583,0,0.000885,0,0
0:5:34.420,1431.18,80.9858,0,0.000885,0,0
0:5:36.121,1438.58,81.4064,0,0.000885,0,0
0:5:37.828,1446.5,81.8546,0,0.000885,0,0
0:5:39.528,1453.78,82.2682,0,0.000885,0,0
0:5:41.220,1461.01,82.675,0,0.000885,0,0
0:5:42.936,1469.57,83.1577,0,0.000885,0,0
0:5:44.628,1476.09,83.53,0,0.000885,0,0
0:5:46.326,1483.5,83.9506,0,0.000885,0,0
0:5:48.035,1491.21,84.3849,0,0.000885,0,0
0:5:49.727,1499.22,84.84,0,0.000885,0,0
0:5:51.421,1506.11,85.2261,0,0.000885,0,0
0:5:53.137,1514,85.6743,0,0.000885,0,0
0:5:54.826,1521.19,86.081,0,0.000885,0,0
0:5:56.507,1528.25,86.4809,0,0.000885,0,0
0:5:58.224,1536.32,86.936,0,0.000885,0,0
0:5:59.921,1543.62,87.3497,0,0.000885,0,0
0:6:1.615,1551.57,87.7978,0,0.000885,0,0
0:6:3.329,1558.52,88.1908,0,0.000885,0,0
0:6:5.030,1565.82,88.6045,0,0.000885,0,0
0:6:6.721,1573.71,89.0527,0,0.000885,0,0
0:6:8.429,1581.24,89.4802,0,0.000885,0,0
0:6:10.117,1588.9,89.9145,0,0.000885,0,0
0:6:11.818,1596.38,90.3351,0,0.000885,0,0
0:6:13.528,1603.5,90.7419,0,0.000885,0,0
0:6:15.216,1610.75,91.1487,0,0.000885,0,0
0:6:16.906,1616.52,91.4727,0,0.000885,0,0
0:6:18.611,1625.23,91.9692,0,0.000885,0,0
0:6:20.312,1633,92.4104,0,0.000885,0,0
0:6:22.014,1642.48,92.9482,0,0.000885,0,0
0:6:23.725,1648.79,93.2999,0,0.000885,0,0
0:6:25.410,1657.21,93.7756,0,0.000885,0,0
0:6:27.106,1663.8,94.1548,0,0.000885,0,0
0:6:28.833,1672.1,94.6236,0,0.000885,0,0
0:6:30.518,1678.52,94.9822,0,0.000885,0,0
0:6:32.235,1686.71,95.451,0,0.000885,0,0
0:6:33.941,1694.36,95.8785,0,0.000885,0,0
0:6:35.629,1701.25,96.2715,0,0.000885,0,0
0:6:37.320,1708.38,96.6714,0,0.000885,0,0
0:6:38.926,1282.56,72.5811,0,0.000885,0,0