Folder: Experiment-Files (part 22)

File: DataFile2021-06-08_041450.csv
Test ID:,Date Tested:,Time:,Test Type:,Diameter Avg. (mm):,Cyl. Corr. Factor:,Height (mm):,Age (days):,Weight (kN):,Break Type:,Ramp Rate (MPa/s):,Load at Break (kN):,Stress at Break (MPa):
12,6/8/2021,04:14,Cylinder,100,1,200,0,3.6,3,0.25,944.57,120.27
Sample Time,Load (kN),Stress (MPa),Long. Strain,Trans. Strain,Chan1 Deflection (mm),Chan2 Deflection (mm)
0:0:14.694,6.04068,0.772213,0,0.000885,0,0
0:0:16.777,10.0307,1.27553,0,0.000885,0,0
0:0:18.857,12.0814,1.53753,0,0.000885,0,0
0:0:20.960,16.8899,2.15116,0,0.000885,0,0
0:0:23.059,21.2314,2.70274,0,0.000885,0,0
0:0:25.151,25.3371,3.22675,0,0.000885,0,0
0:0:27.268,30.7906,3.92312,0,0.000885,0,0
0:0:29.356,33.7842,4.30233,0,0.000885,0,0
0:0:31.468,38.0634,4.84701,0,0.000885,0,0
0:0:33.556,42.0535,5.35723,0,0.000885,0,0
0:0:35.661,46.1592,5.87433,0,0.000885,0,0
0:0:37.761,51.0255,6.49486,0,0.000885,0,0
0:0:39.849,54.3706,6.92234,0,0.000885,0,0
0:0:41.964,58.8277,7.48771,0,0.000885,0,0
0:0:44.054,62.9913,8.0186,0,0.000885,0,0
0:0:46.162,66.7456,8.50124,0,0.000885,0,0
0:0:48.258,70.6733,8.99766,0,0.000885,0,0
0:0:50.350,75.602,9.62508,0,0.000885,0,0
0:0:52.461,79.1205,10.0732,0,0.000885,0,0
0:0:54.549,83.1061,10.5835,0,0.000885,0,0
0:0:56.660,87.3319,11.1212,0,0.000885,0,0
0:0:58.749,92.434,11.7694,0,0.000885,0,0
0:1:0.866,96.1883,12.2451,0,0.000885,0,0
0:1:2.963,100,12.7346,0,0.000885,0,0
0:1:5.052,103.87,13.2241,0,0.000885,0,0
0:1:7.163,107.976,13.7481,0,0.000885,0,0
0:1:9.253,112.082,14.2721,0,0.000885,0,0
0:1:11.365,116.833,14.8789,0,0.000885,0,0
0:1:13.455,120.293,15.3133,0,0.000885,0,0
0:1:15.557,124.63,15.8717,0,0.000885,0,0
0:1:17.655,129.092,16.4371,0,0.000885,0,0
0:1:19.751,132.548,16.8784,0,0.000885,0,0
0:1:21.867,137.477,17.5058,0,0.000885,0,0
0:1:23.957,141.111,17.9677,0,0.000885,0,0
0:1:26.063,145.573,18.5331,0,0.000885,0,0
0:1:28.161,149.149,18.9882,0,0.000885,0,0
0:1:30.252,153.606,19.5604,0,0.000885,0,0
0:1:32.361,157.418,20.0431,0,0.000885,0,0
0:1:34.450,161.817,20.6015,0,0.000885,0,0
0:1:36.565,166.159,21.1531,0,0.000885,0,0
0:1:38.655,169.557,21.5875,0,0.000885,0,0
0:1:40.761,174.544,22.2218,0,0.000885,0,0
0:1:42.859,178.356,22.7113,0,0.000885,0,0
0:1:44.956,182.64,23.256,0,0.000885,0,0
0:1:47.065,186.745,23.78,0,0.000885,0,0
0:1:49.152,190.495,24.2558,0,0.000885,0,0
0:1:51.262,194.721,24.7935,0,0.000885,0,0
0:1:53.357,199.12,25.352,0,0.000885,0,0
0:1:55.457,202.99,25.8484,0,0.000885,0,0
0:1:57.557,207.447,26.4138,0,0.000885,0,0
0:1:59.652,211.144,26.8827,0,0.000885,0,0
0:2:1.750,215.774,27.4756,0,0.000885,0,0
0:2:3.851,219.119,27.8962,0,0.000885,0,0
0:2:5.954,224.164,28.5443,0,0.000885,0,0
0:2:8.052,227.562,28.9718,0,0.000885,0,0
0:2:10.156,231.788,29.5096,0,0.000885,0,0
0:2:12.252,235.542,29.9922,0,0.000885,0,0
0:2:14.354,240.996,30.6817,0,0.000885,0,0
0:2:16.454,244.221,31.0954,0,0.000885,0,0
0:2:18.548,248.793,31.6745,0,0.000885,0,0
0:2:20.659,252.548,32.1571,0,0.000885,0,0
0:2:22.744,256.36,32.6398,0,0.000885,0,0
0:2:24.858,260.466,33.1638,0,0.000885,0,0
0:2:26.956,264.513,33.6809,0,0.000885,0,0
0:2:29.046,269.206,34.2738,0,0.000885,0,0
0:2:31.159,273.192,34.7841,0,0.000885,0,0
0:2:33.257,277.004,35.2667,0,0.000885,0,0
0:2:35.350,281.581,35.8527,0,0.000885,0,0
0:2:37.460,285.451,36.3423,0,0.000885,0,0
0:2:39.549,289.384,36.8456,0,0.000885,0,0
0:2:41.648,294.423,37.4868,0,0.000885,0,0
0:2:43.750,297.768,37.9143,0,0.000885,0,0
0:2:45.859,301.816,38.4314,0,0.000885,0,0
0:2:47.961,306.038,38.9692,0,0.000885,0,0
0:2:50.056,310.201,39.4932,0,0.000885,0,0
0:2:52.163,314.6,40.0585,0,0.000885,0,0
0:2:54.258,318.413,40.5412,0,0.000885,0,0
0:2:56.355,323.048,41.1341,0,0.000885,0,0
0:2:58.447,326.215,41.534,0,0.000885,0,0
0:3:0.552,330.614,42.0925,0,0.000885,0,0
0:3:2.656,335.071,42.6648,0,0.000885,0,0
0:3:4.757,339.057,43.1681,0,0.000885,0,0
0:3:6.857,342.989,43.6714,0,0.000885,0,0
0:3:8.960,346.681,44.1402,0,0.000885,0,0
0:3:11.062,351.668,44.7746,0,0.000885,0,0
0:3:13.150,355.422,45.2503,0,0.000885,0,0
0:3:15.254,359.118,45.726,0,0.000885,0,0
0:3:17.359,364.1,46.3603,0,0.000885,0,0
0:3:19.458,367.561,46.8016,0,0.000885,0,0
0:3:21.564,372.547,47.4359,0,0.000885,0,0
0:3:23.653,376.186,47.8979,0,0.000885,0,0
0:3:25.752,379.936,48.3736,0,0.000885,0,0
0:3:27.863,384.571,48.9666,0,0.000885,0,0
0:3:29.954,388.267,49.4354,0,0.000885,0,0
0:3:32.064,392.84,50.0215,0,0.000885,0,0
0:3:34.167,397.355,50.5937,0,0.000885,0,0
0:3:36.265,400.522,50.9936,0,0.000885,0,0
0:3:38.350,405.157,51.5866,0,0.000885,0,0
0:3:40.460,409.379,52.1244,0,0.000885,0,0
0:3:42.562,413.369,52.6346,0,0.000885,0,0
0:3:44.662,417.648,53.1793,0,0.000885,0,0
0:3:46.761,421.696,53.6895,0,0.000885,0,0
0:3:48.853,425.392,54.1652,0,0.000885,0,0
0:3:50.957,430.027,54.7513,0,0.000885,0,0
0:3:53.057,433.719,55.2201,0,0.000885,0,0
0:3:55.163,438.297,55.8062,0,0.000885,0,0
0:3:57.259,441.522,56.213,0,0.000885,0,0
0:3:59.359,446.33,56.8266,0,0.000885,0,0
0:4:1.468,450.787,57.3989,0,0.000885,0,0
0:4:3.559,454.248,57.8332,0,0.000885,0,0
0:4:5.664,458.821,58.4193,0,0.000885,0,0
0:4:7.766,462.989,58.9502,0,0.000885,0,0
0:4:9.847,466.623,59.4121,0,0.000885,0,0
0:4:11.958,471.2,59.9982,0,0.000885,0,0
0:4:14.049,475.537,60.5498,0,0.000885,0,0
0:4:16.154,478.762,60.9565,0,0.000885,0,0
0:4:18.249,483.281,61.5357,0,0.000885,0,0
0:4:20.362,487.094,62.0183,0,0.000885,0,0
0:4:22.464,491.902,62.632,0,0.000885,0,0
0:4:24.558,495.656,63.1077,0,0.000885,0,0
0:4:26.657,499.936,63.6524,0,0.000885,0,0
0:4:28.760,504.161,64.1902,0,0.000885,0,0
0:4:30.853,507.738,64.6452,0,0.000885,0,0
0:4:32.962,512.489,65.252,0,0.000885,0,0
0:4:35.056,516.185,65.7208,0,0.000885,0,0
0:4:37.163,520.286,66.2448,0,0.000885,0,0
0:4:39.257,524.686,66.8033,0,0.000885,0,0
0:4:41.353,528.733,67.3204,0,0.000885,0,0
0:4:43.458,532.546,67.803,0,0.000885,0,0
0:4:45.575,537.71,68.4649,0,0.000885,0,0
0:4:47.672,540.993,68.8786,0,0.000885,0,0
0:4:49.775,545.272,69.4233,0,0.000885,0,0
0:4:51.873,549.378,69.9473,0,0.000885,0,0
0:4:53.968,553.955,70.5334,0,0.000885,0,0
0:4:56.071,557.589,70.9953,0,0.000885,0,0
0:4:58.161,561.637,71.5124,0,0.000885,0,0
0:5:0.255,565.391,71.9882,0,0.000885,0,0
0:5:2.362,570.084,72.588,0,0.000885,0,0
0:5:4.476,574.128,73.0982,0,0.000885,0,0
0:5:6.574,578.175,73.6153,0,0.000885,0,0
0:5:8.665,582.223,74.1324,0,0.000885,0,0
0:5:10.780,586.507,74.6771,0,0.000885,0,0
0:5:12.863,590.493,75.1873,0,0.000885,0,0
0:5:14.957,594.718,75.7251,0,0.000885,0,0
0:5:17.076,598.593,76.2146,0,0.000885,0,0
0:5:19.159,602.761,76.7455,0,0.000885,0,0
0:5:21.281,607.694,77.373,0,0.000885,0,0
0:5:23.373,611.217,77.8211,0,0.000885,0,0
0:5:25.478,615.736,78.4003,0,0.000885,0,0
0:5:27.572,619.611,78.8898,0,0.000885,0,0
0:5:29.662,624.246,79.4828,0,0.000885,0,0
0:5:31.773,628.004,79.9585,0,0.000885,0,0
0:5:33.856,632.052,80.4756,0,0.000885,0,0
0:5:35.981,635.811,80.9513,0,0.000885,0,0
0:5:38.074,640.21,81.5167,0,0.000885,0,0
0:5:40.167,644.32,82.0407,0,0.000885,0,0
0:5:42.279,648.137,82.5233,0,0.000885,0,0
0:5:44.360,652.011,83.0198,0,0.000885,0,0
0:5:46.466,656.531,83.592,0,0.000885,0,0
0:5:48.560,660.757,84.1298,0,0.000885,0,0
0:5:50.677,665.103,84.6814,0,0.000885,0,0
0:5:52.778,668.563,85.1227,0,0.000885,0,0
0:5:54.871,673.318,85.7294,0,0.000885,0,0
0:5:56.983,677.135,86.212,0,0.000885,0,0
0:5:59.065,681.597,86.7843,0,0.000885,0,0
0:6:1.169,685.293,87.2532,0,0.000885,0,0
0:6:3.268,689.403,87.7772,0,0.000885,0,0
0:6:5.364,693.335,88.2805,0,0.000885,0,0
0:6:7.469,697.383,88.7907,0,0.000885,0,0
0:6:9.562,701.551,89.3216,0,0.000885,0,0
0:6:11.671,706.071,89.9007,0,0.000885,0,0
0:6:13.756,710.065,90.411,0,0.000885,0,0
0:6:15.868,714.349,90.9556,0,0.000885,0,0
0:6:17.960,718.459,91.4796,0,0.000885,0,0
0:6:20.041,722.743,92.0243,0,0.000885,0,0
0:6:22.163,726.323,92.4794,0,0.000885,0,0
0:6:24.250,731.079,93.0861,0,0.000885,0,0
0:6:26.352,734.895,93.5688,0,0.000885,0,0
0:6:28.440,739.001,94.0928,0,0.000885,0,0
0:6:30.539,743.111,94.6168,0,0.000885,0,0
0:6:32.634,746.928,95.0994,0,0.000885,0,0
0:6:34.716,751.269,95.6579,0,0.000885,0,0
0:6:36.829,755.499,96.1957,0,0.000885,0,0
0:6:38.913,759.076,96.6507,0,0.000885,0,0
0:6:41.017,763.657,97.2299,0,0.000885,0,0
0:6:43.107,767.941,97.7746,0,0.000885,0,0
0:6:45.196,771.758,98.2641,0,0.000885,0,0
0:6:47.299,775.69,98.7605,0,0.000885,0,0
0:6:49.384,780.031,99.319,0,0.000885,0,0
0:6:51.493,784.319,99.8637,0,0.000885,0,0
0:6:53.580,788.661,100.415,0,0.000885,0,0
0:6:55.683,792.126,100.857,0,0.000885,0,0
0:6:57.783,796.53,101.415,0,0.000885,0,0
0:6:59.865,800.404,101.911,0,0.000885,0,0
0:7:1.978,805.097,102.511,0,0.000885,0,0
0:7:4.070,808.442,102.932,0,0.000885,0,0
0:7:6.186,813.255,103.545,0,0.000885,0,0
0:7:8.283,817.129,104.042,0,0.000885,0,0
0:7:10.372,821.417,104.587,0,0.000885,0,0
0:7:12.483,825.523,105.111,0,0.000885,0,0
0:7:14.571,829.46,105.607,0,0.000885,0,0
0:7:16.686,833.566,106.131,0,0.000885,0,0
0:7:18.777,837.44,106.627,0,0.000885,0,0
0:7:20.891,841.902,107.193,0,0.000885,0,0
0:7:22.980,846.185,107.737,0,0.000885,0,0
0:7:25.084,849.944,108.22,0,0.000885,0,0
0:7:27.190,854.29,108.772,0,0.000885,0,0
0:7:29.271,858.28,109.282,0,0.000885,0,0
0:7:31.385,862.915,109.868,0,0.000885,0,0
0:7:33.468,866.674,110.351,0,0.000885,0,0
0:7:35.570,870.9,110.888,0,0.000885,0,0
0:7:37.672,874.658,111.364,0,0.000885,0,0
0:7:39.774,878.942,111.909,0,0.000885,0,0
0:7:41.887,883.403,112.481,0,0.000885,0,0
0:7:43.970,887.1,112.95,0,0.000885,0,0
0:7:46.081,891.677,113.529,0,0.000885,0,0
0:7:48.182,895.494,114.019,0,0.000885,0,0
0:7:50.296,899.075,114.474,0,0.000885,0,0
0:7:52.392,904.008,115.101,0,0.000885,0,0
0:7:54.471,907.82,115.591,0,0.000885,0,0
0:7:56.583,912.108,116.135,0,0.000885,0,0
0:7:58.667,916.276,116.666,0,0.000885,0,0
0:8:0.769,920.266,117.17,0,0.000885,0,0
0:8:2.869,923.789,117.618,0,0.000885,0,0
0:8:4.972,928.838,118.266,0,0.000885,0,0
0:8:7.082,932.356,118.714,0,0.000885,0,0
0:8:9.171,934.353,118.969,0,0.000885,0,0
0:8:11.283,941.399,119.865,0,0.000885,0,0
0:8:13.394,943.922,120.183,0,0.000885,0,0
0:8:15.486,941.573,119.886,0,0.000885,0,0
0:8:17.581,799.817,101.836,0,0.000885,0,0
0:8:19.679,794.59,101.174,0,0.000885,0,0
0:8:20.909,662.167,84.3091,0,0.000885,0,0

File: DataFile2021-06-08_043212.csv
Test ID:,Date Tested:,Time:,Test Type:,Diameter Avg. (mm):,Cyl. Corr. Factor:,Height (mm):,Age (days):,Weight (kN):,Break Type:,Ramp Rate (MPa/s):,Load at Break (kN):,Stress at Break (MPa):
12,6/8/2021,04:32,Cylinder,100,1,200,0,3.6,3,0.24,1008.37,128.39
Sample Time,Load (kN),Stress (MPa),Long. Strain,Trans. Strain,Chan1 Deflection (mm),Chan2 Deflection (mm)
0:0:11.313,5.7471,0.730844,0,0.000885,0,0
0:0:13.497,10.907,1.38585,0,0.000885,0,0
0:0:15.679,12.375,1.5789,0,0.000885,0,0
0:0:17.889,18.0064,2.29595,0,0.000885,0,0
0:0:20.085,22.9929,2.93027,0,0.000885,0,0
0:0:22.284,27.0986,3.44738,0,0.000885,0,0
0:0:24.483,30.9107,3.93691,0,0.000885,0,0
0:0:26.673,35.8349,4.56433,0,0.000885,0,0
0:0:28.891,39.8249,5.06765,0,0.000885,0,0
0:0:31.078,43.9306,5.59165,0,0.000885,0,0
0:0:33.289,48.6813,6.19839,0,0.000885,0,0
0:0:35.480,52.6669,6.7086,0,0.000885,0,0
0:0:37.687,57.4755,7.31534,0,0.000885,0,0
0:0:39.879,60.8205,7.74281,0,0.000885,0,0
0:0:42.078,65.4556,8.33576,0,0.000885,0,0
0:0:44.283,70.0284,8.91492,0,0.000885,0,0
0:0:46.471,75.0726,9.55613,0,0.000885,0,0
0:0:48.685,78.3554,9.97671,0,0.000885,0,0
0:0:50.877,82.8748,10.549,0,0.000885,0,0
0:0:53.085,87.4476,11.135,0,0.000885,0,0
0:0:55.278,91.7312,11.6797,0,0.000885,0,0
0:0:57.487,96.0682,12.2313,0,0.000885,0,0
0:0:59.681,100.294,12.7691,0,0.000885,0,0
0:1:1.878,104.106,13.2517,0,0.000885,0,0
0:1:4.086,109.324,13.9205,0,0.000885,0,0
0:1:6.273,113.256,14.4169,0,0.000885,0,0
0:1:8.486,117.357,14.9409,0,0.000885,0,0
0:1:10.677,121.935,15.527,0,0.000885,0,0
0:1:12.886,126.276,16.0786,0,0.000885,0,0
0:1:15.075,129.852,16.5336,0,0.000885,0,0
0:1:17.277,135.07,17.1955,0,0.000885,0,0
0:1:19.480,139.354,17.7402,0,0.000885,0,0
0:1:21.674,143.05,18.2159,0,0.000885,0,0
0:1:23.879,147.917,18.8365,0,0.000885,0,0
0:1:26.068,151.787,19.326,0,0.000885,0,0
0:1:28.279,155.835,19.8431,0,0.000885,0,0
0:1:30.468,160.763,20.4705,0,0.000885,0,0
0:1:32.674,164.927,21.0014,0,0.000885,0,0
0:1:34.872,169.384,21.5668,0,0.000885,0,0
0:1:37.063,173.605,22.1046,0,0.000885,0,0
0:1:39.269,178.356,22.7113,0,0.000885,0,0
0:1:41.457,182.226,23.2009,0,0.000885,0,0
0:1:43.669,186.096,23.6973,0,0.000885,0,0
0:1:45.861,190.557,24.2627,0,0.000885,0,0
0:1:48.068,195.13,24.8418,0,0.000885,0,0
0:1:50.259,199.294,25.3727,0,0.000885,0,0
0:1:52.462,204.102,25.9863,0,0.000885,0,0
0:1:54.652,207.977,26.4828,0,0.000885,0,0
0:1:56.856,212.843,27.1033,0,0.000885,0,0
0:1:59.062,216.597,27.579,0,0.000885,0,0
0:2:1.261,220.703,28.103,0,0.000885,0,0
0:2:3.459,225.511,28.7098,0,0.000885,0,0
0:2:5.661,229.088,29.1717,0,0.000885,0,0
0:2:7.860,233.959,29.7854,0,0.000885,0,0
0:2:10.054,238.18,30.3231,0,0.000885,0,0
0:2:12.256,242.108,30.8265,0,0.000885,0,0
0:2:14.454,247.272,31.4815,0,0.000885,0,0
0:2:16.656,251.729,32.0537,0,0.000885,0,0
0:2:18.859,255.541,32.5364,0,0.000885,0,0
0:2:21.063,260.234,33.1362,0,0.000885,0,0
0:2:23.256,263.753,33.5844,0,0.000885,0,0
0:2:25.456,269.028,34.2532,0,0.000885,0,0
0:2:27.669,272.961,34.7565,0,0.000885,0,0
0:2:29.855,276.653,35.2253,0,0.000885,0,0
0:2:32.063,282.226,35.9355,0,0.000885,0,0
0:2:34.264,286.448,36.4733,0,0.000885,0,0
0:2:36.452,290.905,37.0386,0,0.000885,0,0
0:2:38.658,294.543,37.5006,0,0.000885,0,0
0:2:40.863,299.174,38.0935,0,0.000885,0,0
0:2:43.067,302.928,38.5693,0,0.000885,0,0
0:2:45.266,307.092,39.1002,0,0.000885,0,0
0:2:47.454,312.136,39.7414,0,0.000885,0,0
0:2:49.665,316.713,40.3274,0,0.000885,0,0
0:2:51.855,319.881,40.7273,0,0.000885,0,0
0:2:54.060,324.747,41.3479,0,0.000885,0,0
0:2:56.263,328.679,41.8512,0,0.000885,0,0
0:2:58.468,333.781,42.4993,0,0.000885,0,0
0:3:0.665,337.536,42.975,0,0.000885,0,0
0:3:2.873,341.521,43.4852,0,0.000885,0,0
0:3:5.065,345.92,44.0437,0,0.000885,0,0
0:3:7.270,350.613,44.6436,0,0.000885,0,0
0:3:9.460,354.835,45.1813,0,0.000885,0,0
0:3:11.662,359.118,45.726,0,0.000885,0,0
0:3:13.857,363.869,46.3259,0,0.000885,0,0
0:3:16.067,368.384,46.905,0,0.000885,0,0
0:3:18.271,372.432,47.4221,0,0.000885,0,0
0:3:20.466,376.36,47.9186,0,0.000885,0,0
0:3:22.666,381.23,48.5391,0,0.000885,0,0
0:3:24.868,385.625,49.0976,0,0.000885,0,0
0:3:27.071,390.025,49.6629,0,0.000885,0,0
0:3:29.252,393.543,50.1111,0,0.000885,0,0
0:3:31.466,397.417,50.6006,0,0.000885,0,0
0:3:33.664,402.813,51.2901,0,0.000885,0,0
0:3:35.871,406.919,51.8072,0,0.000885,0,0
0:3:38.068,411.14,52.345,0,0.000885,0,0
0:3:40.259,415.949,52.9586,0,0.000885,0,0
0:3:42.475,419.174,53.3723,0,0.000885,0,0
0:3:44.666,423.693,53.9446,0,0.000885,0,0
0:3:46.857,428.444,54.5513,0,0.000885,0,0
0:3:49.061,432.487,55.0684,0,0.000885,0,0
0:3:51.261,436.419,55.5648,0,0.000885,0,0
0:3:53.469,440.877,56.1371,0,0.000885,0,0
0:3:55.672,446.33,56.8266,0,0.000885,0,0
0:3:57.861,449.791,57.2679,0,0.000885,0,0
0:4:0.067,454.484,57.8677,0,0.000885,0,0
0:4:2.270,459.056,58.4469,0,0.000885,0,0
0:4:4.462,462.869,58.9364,0,0.000885,0,0
0:4:6.673,467.152,59.4811,0,0.000885,0,0
0:4:8.872,471.2,59.9982,0,0.000885,0,0
0:4:11.061,475.831,60.5842,0,0.000885,0,0
0:4:13.266,480.288,61.1496,0,0.000885,0,0
0:4:15.469,484.981,61.7494,0,0.000885,0,0
0:4:17.668,488.735,62.2252,0,0.000885,0,0
0:4:19.865,493.308,62.8112,0,0.000885,0,0
0:4:22.072,497.413,63.3352,0,0.000885,0,0
0:4:24.261,501.871,63.9006,0,0.000885,0,0
0:4:26.476,506.212,64.4522,0,0.000885,0,0
0:4:28.669,509.788,64.9072,0,0.000885,0,0
0:4:30.872,515.184,65.5967,0,0.000885,0,0
0:4:33.079,518.938,66.0725,0,0.000885,0,0
0:4:35.269,523.458,66.6516,0,0.000885,0,0
0:4:37.462,528.088,67.2377,0,0.000885,0,0
0:4:39.662,531.901,67.7272,0,0.000885,0,0
0:4:41.879,536.709,68.3339,0,0.000885,0,0
0:4:44.077,540.993,68.8786,0,0.000885,0,0
0:4:46.267,545.334,69.4371,0,0.000885,0,0
0:4:48.477,549.378,69.9473,0,0.000885,0,0
0:4:50.672,553.719,70.4989,0,0.000885,0,0
0:4:52.883,558.061,71.0574,0,0.000885,0,0
0:4:55.067,562.518,71.6227,0,0.000885,0,0
0:4:57.274,566.739,72.1605,0,0.000885,0,0
0:4:59.468,571.138,72.719,0,0.000885,0,0
0:5:1.661,574.95,73.2016,0,0.000885,0,0
0:5:3.880,579.817,73.8222,0,0.000885,0,0
0:5:6.069,583.922,74.3462,0,0.000885,0,0
0:5:8.274,587.797,74.8426,0,0.000885,0,0
0:5:10.464,592.432,75.4286,0,0.000885,0,0
0:5:12.680,596.773,75.9802,0,0.000885,0,0
0:5:14.875,601.177,76.5456,0,0.000885,0,0
0:5:17.079,605.287,77.0696,0,0.000885,0,0
0:5:19.278,609.749,77.635,0,0.000885,0,0
0:5:21.470,614.148,78.1934,0,0.000885,0,0
0:5:23.683,618.61,78.7657,0,0.000885,0,0
0:5:25.874,622.893,79.3104,0,0.000885,0,0
0:5:28.088,627.181,79.8551,0,0.000885,0,0
0:5:30.283,631.759,80.4411,0,0.000885,0,0
0:5:32.485,635.633,80.9307,0,0.000885,0,0
0:5:34.672,640.21,81.5167,0,0.000885,0,0
0:5:36.882,644.263,82.0269,0,0.000885,0,0
0:5:39.080,648.488,82.5647,0,0.000885,0,0
0:5:41.273,653.244,83.1715,0,0.000885,0,0
0:5:43.479,657.527,83.7161,0,0.000885,0,0
0:5:45.668,661.811,84.2677,0,0.000885,0,0
0:5:47.873,666.272,84.8331,0,0.000885,0,0
0:5:50.062,669.973,85.3019,0,0.000885,0,0
0:5:52.281,674.551,85.888,0,0.000885,0,0
0:5:54.481,678.834,86.4327,0,0.000885,0,0
0:5:56.677,683.709,87.0532,0,0.000885,0,0
0:5:58.878,687.757,87.5703,0,0.000885,0,0
0:6:1.081,691.396,88.0323,0,0.000885,0,0
0:6:3.287,696.445,88.6735,0,0.000885,0,0
0:6:5.475,701.022,89.2595,0,0.000885,0,0
0:6:7.689,705.31,89.8042,0,0.000885,0,0
0:6:9.881,709.184,90.2937,0,0.000885,0,0
0:6:12.088,713.526,90.8522,0,0.000885,0,0
0:6:14.289,717.814,91.3969,0,0.000885,0,0
0:6:16.471,721.275,91.8382,0,0.000885,0,0
0:6:18.674,726.501,92.5001,0,0.000885,0,0
0:6:20.881,731.194,93.0999,0,0.000885,0,0
0:6:23.099,735.069,93.5894,0,0.000885,0,0
0:6:25.281,739.357,94.1341,0,0.000885,0,0
0:6:27.481,743.934,94.7202,0,0.000885,0,0
0:6:29.683,747.808,95.2166,0,0.000885,0,0
0:6:31.887,752.443,95.8027,0,0.000885,0,0
0:6:34.088,756.496,96.3198,0,0.000885,0,0
0:6:36.281,760.779,96.8644,0,0.000885,0,0
0:6:38.498,765.299,97.4436,0,0.000885,0,0
0:6:40.685,769.467,97.9745,0,0.000885,0,0
0:6:42.891,774.28,98.5812,0,0.000885,0,0
0:6:45.085,778.506,99.1259,0,0.000885,0,0
0:6:47.275,782.909,99.6844,0,0.000885,0,0
0:6:49.474,786.312,100.119,0,0.000885,0,0
0:6:51.668,791.245,100.746,0,0.000885,0,0
0:6:53.887,795.88,101.332,0,0.000885,0,0
0:6:56.074,799.403,101.78,0,0.000885,0,0
0:6:58.288,804.274,102.401,0,0.000885,0,0
0:7:0.469,808.148,102.897,0,0.000885,0,0
0:7:2.680,812.961,103.511,0,0.000885,0,0
0:7:4.873,816.778,103.994,0,0.000885,0,0
0:7:7.082,821.355,104.58,0,0.000885,0,0
0:7:9.290,825.995,105.166,0,0.000885,0,0
0:7:11.476,829.927,105.669,0,0.000885,0,0
0:7:13.680,834.74,106.283,0,0.000885,0,0
0:7:15.876,839.495,106.889,0,0.000885,0,0
0:7:18.084,843.312,107.372,0,0.000885,0,0
0:7:20.280,847.36,107.889,0,0.000885,0,0
0:7:22.491,852.235,108.51,0,0.000885,0,0
0:7:24.690,856.518,109.054,0,0.000885,0,0
0:7:26.879,860.099,109.509,0,0.000885,0,0
0:7:29.082,864.797,110.109,0,0.000885,0,0
0:7:31.277,869.254,110.675,0,0.000885,0,0
0:7:33.496,874.129,111.295,0,0.000885,0,0
0:7:35.685,877.71,111.75,0,0.000885,0,0
0:7:37.892,881.758,112.267,0,0.000885,0,0
0:7:40.084,886.277,112.846,0,0.000885,0,0
0:7:42.278,890.503,113.384,0,0.000885,0,0
0:7:44.471,895.2,113.977,0,0.000885,0,0
0:7:46.653,899.777,114.563,0,0.000885,0,0
0:7:48.859,903.3,115.011,0,0.000885,0,0
0:7:51.042,908.056,115.618,0,0.000885,0,0
0:7:53.253,912.695,116.211,0,0.000885,0,0
0:7:55.433,916.098,116.639,0,0.000885,0,0
0:7:57.630,920.969,117.259,0,0.000885,0,0
0:7:59.824,924.492,117.707,0,0.000885,0,0
0:8:2.019,929.714,118.376,0,0.000885,0,0
0:8:4.208,933.237,118.824,0,0.000885,0,0
0:8:6.399,938.286,119.465,0,0.000885,0,0
0:8:8.609,942.511,120.003,0,0.000885,0,0
0:8:10.787,946.386,120.5,0,0.000885,0,0
0:8:12.992,951.55,121.155,0,0.000885,0,0
0:8:15.185,955.838,121.699,0,0.000885,0,0
0:8:17.387,960.238,122.265,0,0.000885,0,0
0:8:19.584,963.587,122.685,0,0.000885,0,0
0:8:21.782,967.986,123.251,0,0.000885,0,0
0:8:23.990,972.862,123.871,0,0.000885,0,0
0:8:26.190,975.793,124.244,0,0.000885,0,0
0:8:28.405,981.193,124.933,0,0.000885,0,0
0:8:30.596,985.188,125.436,0,0.000885,0,0
0:8:32.800,990.588,126.126,0,0.000885,0,0
0:8:34.996,994.698,126.65,0,0.000885,0,0
0:8:37.206,997.865,127.05,0,0.000885,0,0
0:8:39.399,1003.39,127.753,0,0.000885,0,0
0:8:41.591,1006.2,128.111,0,0.000885,0,0
0:8:42.590,751.447,95.6785,0,0.000885,0,0