Folder: Experiment-Files (part 3)

File: DataFile2021-06-06_051051.csv
Test ID:,Date Tested:,Time:,Test Type:,Diameter Avg. (mm):,Cyl. Corr. Factor:,Height (mm):,Age (days):,Weight (kN):,Break Type:,Ramp Rate (MPa/s):,Load at Break (kN):,Stress at Break (MPa):
12,6/6/2021,05:10,Cylinder,150,1,300,0,13.39,3,0.24,770.93,43.62
Sample Time,Load (kN),Stress (MPa),Long. Strain,Trans. Strain,Chan1 Deflection (mm),Chan2 Deflection (mm)
0:0:17.660,8.26924,0.468843,0,0.000885,0,0
0:0:18.454,15.2485,0.861845,0,0.000885,0,0
0:0:19.249,14.43,0.813581,0,0.000885,0,0
0:0:20.039,15.1328,0.85495,0,0.000885,0,0
0:0:20.838,17.9486,1.01353,0,0.000885,0,0
0:0:21.630,21.6406,1.22727,0,0.000885,0,0
0:0:22.429,26.2178,1.48237,0,0.000885,0,0
0:0:23.234,30.8484,1.74437,0,0.000885,0,0
0:0:24.043,34.8963,1.9719,0,0.000885,0,0
0:0:24.846,37.3606,2.11669,0,0.000885,0,0
0:0:25.639,40.6434,2.30285,0,0.000885,0,0
0:0:26.438,44.4555,2.51659,0,0.000885,0,0
0:0:27.231,48.152,2.72343,0,0.000885,0,0
0:0:28.032,51.4971,2.91648,0,0.000885,0,0
0:0:28.843,55.1891,3.12333,0,0.000885,0,0
0:0:29.650,58.9434,3.33706,0,0.000885,0,0
0:0:30.447,62.6399,3.54391,0,0.000885,0,0
0:0:31.245,64.9841,3.67491,0,0.000885,0,0
0:0:32.040,68.7962,3.89554,0,0.000885,0,0
0:0:32.834,72.6083,4.10928,0,0.000885,0,0
0:0:33.645,75.8956,4.29543,0,0.000885,0,0
0:0:34.455,79.1205,4.4747,0,0.000885,0,0
0:0:35.252,82.9905,4.69533,0,0.000885,0,0
0:0:36.046,87.0384,4.92286,0,0.000885,0,0
0:0:36.847,90.9661,5.15038,0,0.000885,0,0
0:0:37.641,93.7819,5.30896,0,0.000885,0,0
0:0:38.452,97.5362,5.5227,0,0.000885,0,0
0:0:39.262,100.997,5.71575,0,0.000885,0,0
0:0:40.056,104.809,5.92949,0,0.000885,0,0
0:0:40.856,107.918,6.10875,0,0.000885,0,0
0:0:41.649,111.201,6.29491,0,0.000885,0,0
0:0:42.448,115.013,6.50865,0,0.000885,0,0
0:0:43.253,118.652,6.71549,0,0.000885,0,0
0:0:44.062,122.695,6.94302,0,0.000885,0,0
0:0:44.865,125.338,7.09471,0,0.000885,0,0
0:0:45.659,128.736,7.28776,0,0.000885,0,0
0:0:46.458,132.904,7.52218,0,0.000885,0,0
0:0:47.253,136.187,7.70834,0,0.000885,0,0
0:0:48.052,140.35,7.94276,0,0.000885,0,0
0:0:48.865,143.575,8.12202,0,0.000885,0,0
0:0:49.672,146.862,8.30818,0,0.000885,0,0
0:0:50.465,149.967,8.48745,0,0.000885,0,0
0:0:51.264,153.779,8.70118,0,0.000885,0,0
0:0:52.058,157.24,8.90113,0,0.000885,0,0
0:0:52.855,160.114,9.05971,0,0.000885,0,0
0:0:53.661,164.219,9.29413,0,0.000885,0,0
0:0:54.468,168.094,9.51477,0,0.000885,0,0
0:0:55.270,171.555,9.70782,0,0.000885,0,0
0:0:56.062,174.837,9.89398,0,0.000885,0,0
0:0:56.863,178.472,10.1008,0,0.000885,0,0
0:0:57.657,182.168,10.3077,0,0.000885,0,0
0:0:58.468,185.335,10.4869,0,0.000885,0,0
0:0:59.275,188.912,10.6869,0,0.000885,0,0
0:1:0.071,190.028,10.7558,0,0.000885,0,0
0:1:0.867,194.837,11.0247,0,0.000885,0,0
0:1:1.653,199.178,11.2729,0,0.000885,0,0
0:1:2.449,204.222,11.5556,0,0.000885,0,0
0:1:3.246,209.498,11.8521,0,0.000885,0,0
0:1:4.050,213.079,12.0589,0,0.000885,0,0
0:1:4.844,215.894,12.2175,0,0.000885,0,0
0:1:5.637,218.181,12.3485,0,0.000885,0,0
0:1:6.427,220.997,12.5071,0,0.000885,0,0
0:1:7.217,224.222,12.6864,0,0.000885,0,0
0:1:8.007,227.624,12.8794,0,0.000885,0,0
0:1:8.811,231.846,13.1207,0,0.000885,0,0
0:1:9.612,235.542,13.3276,0,0.000885,0,0
0:1:10.409,239.176,13.5344,0,0.000885,0,0
0:1:11.211,242.753,13.7344,0,0.000885,0,0
0:1:12.020,246.334,13.9412,0,0.000885,0,0
0:1:12.812,249.674,14.1274,0,0.000885,0,0
0:1:13.624,252.49,14.2859,0,0.000885,0,0
0:1:14.427,256.186,14.4997,0,0.000885,0,0
0:1:15.221,259.527,14.6858,0,0.000885,0,0
0:1:16.019,262.872,14.8789,0,0.000885,0,0
0:1:16.809,266.684,15.0926,0,0.000885,0,0
0:1:17.617,270.381,15.2995,0,0.000885,0,0
0:1:18.422,274.308,15.5201,0,0.000885,0,0
0:1:19.223,277.36,15.6925,0,0.000885,0,0
0:1:20.015,280.701,15.8855,0,0.000885,0,0
0:1:20.815,284.864,16.1199,0,0.000885,0,0
0:1:21.606,288.209,16.3061,0,0.000885,0,0
0:1:22.400,291.786,16.5129,0,0.000885,0,0
0:1:23.195,294.837,16.6853,0,0.000885,0,0
0:1:24.000,298.004,16.8646,0,0.000885,0,0
0:1:24.794,302.168,17.099,0,0.000885,0,0
0:1:25.588,305.744,17.2989,0,0.000885,0,0
0:1:26.377,309.792,17.5334,0,0.000885,0,0
0:1:27.167,312.781,17.6988,0,0.000885,0,0
0:1:27.961,316.068,17.885,0,0.000885,0,0
0:1:28.766,320.116,18.1125,0,0.000885,0,0
0:1:29.568,323.283,18.2918,0,0.000885,0,0
0:1:30.355,326.451,18.4711,0,0.000885,0,0
0:1:31.149,330.2,18.6848,0,0.000885,0,0
0:1:31.938,333.723,18.8847,0,0.000885,0,0
0:1:32.730,337.3,19.0847,0,0.000885,0,0
0:1:33.529,340.76,19.2846,0,0.000885,0,0
0:1:34.332,344.159,19.4777,0,0.000885,0,0
0:1:35.126,347.855,19.6845,0,0.000885,0,0
0:1:35.913,350.849,19.8569,0,0.000885,0,0
0:1:36.715,354.483,20.0568,0,0.000885,0,0
0:1:37.513,358.18,20.2706,0,0.000885,0,0
0:1:38.320,362.165,20.4912,0,0.000885,0,0
0:1:39.121,365.51,20.6843,0,0.000885,0,0
0:1:39.913,368.442,20.8497,0,0.000885,0,0
0:1:40.711,372.138,21.0566,0,0.000885,0,0
0:1:41.503,375.83,21.2703,0,0.000885,0,0
0:1:42.291,379.998,21.5047,0,0.000885,0,0
0:1:43.088,383.397,21.6978,0,0.000885,0,0
0:1:43.893,386.332,21.8633,0,0.000885,0,0
0:1:44.690,390.318,22.0908,0,0.000885,0,0
0:1:45.484,392.725,22.2218,0,0.000885,0,0
0:1:46.270,396.946,22.4631,0,0.000885,0,0
0:1:47.065,400.464,22.6631,0,0.000885,0,0
0:1:47.850,404.277,22.8768,0,0.000885,0,0
0:1:48.658,407.15,23.0423,0,0.000885,0,0
0:1:49.459,411.549,23.2905,0,0.000885,0,0
0:1:50.252,414.895,23.4766,0,0.000885,0,0
0:1:51.044,418.062,23.6559,0,0.000885,0,0
0:1:51.833,421.109,23.8283,0,0.000885,0,0
0:1:52.625,425.214,24.0627,0,0.000885,0,0
0:1:53.431,428.444,24.242,0,0.000885,0,0
0:1:54.232,431.962,24.4419,0,0.000885,0,0
0:1:55.021,436.126,24.6763,0,0.000885,0,0
0:1:55.812,439.467,24.8694,0,0.000885,0,0
0:1:56.619,442.812,25.0555,0,0.000885,0,0
0:1:57.413,446.508,25.2693,0,0.000885,0,0
0:1:58.223,449.382,25.4279,0,0.000885,0,0
0:1:59.025,453.309,25.6554,0,0.000885,0,0
0:1:59.830,457.299,25.876,0,0.000885,0,0
0:2:0.628,460.404,26.0553,0,0.000885,0,0
0:2:1.422,463.514,26.2277,0,0.000885,0,0
0:2:2.228,466.974,26.4276,0,0.000885,0,0
0:2:3.023,471.08,26.6551,0,0.000885,0,0
0:2:3.829,474.599,26.8551,0,0.000885,0,0
0:2:4.629,478.762,27.0895,0,0.000885,0,0
0:2:5.426,481.698,27.2619,0,0.000885,0,0
0:2:6.217,485.39,27.4687,0,0.000885,0,0
0:2:7.008,488.384,27.6342,0,0.000885,0,0
0:2:7.812,491.551,27.8135,0,0.000885,0,0
0:2:8.618,495.479,28.041,0,0.000885,0,0
0:2:9.413,499.411,28.2616,0,0.000885,0,0
0:2:10.228,503.281,28.4822,0,0.000885,0,0
0:2:11.016,506.27,28.6477,0,0.000885,0,0
0:2:11.816,510.26,28.8752,0,0.000885,0,0
0:2:12.631,513.485,29.0545,0,0.000885,0,0
0:2:13.438,516.71,29.2407,0,0.000885,0,0
0:2:14.240,519.997,29.4268,0,0.000885,0,0
0:2:15.029,524.276,29.6681,0,0.000885,0,0
0:2:15.831,527.973,29.875,0,0.000885,0,0
0:2:16.621,530.726,30.0336,0,0.000885,0,0
0:2:17.410,534.129,30.2266,0,0.000885,0,0
0:2:18.213,537.941,30.4404,0,0.000885,0,0
0:2:19.016,541.228,30.6265,0,0.000885,0,0
0:2:19.819,544.978,30.8402,0,0.000885,0,0
0:2:20.618,548.559,31.0402,0,0.000885,0,0
0:2:21.429,552.723,31.2746,0,0.000885,0,0
0:2:22.231,555.654,31.447,0,0.000885,0,0
0:2:23.027,559.466,31.6607,0,0.000885,0,0
0:2:23.832,562.398,31.8262,0,0.000885,0,0
0:2:24.627,566.152,32.0399,0,0.000885,0,0
0:2:25.428,569.964,32.2537,0,0.000885,0,0
0:2:26.217,573.896,32.4743,0,0.000885,0,0
0:2:27.017,576.298,32.6122,0,0.000885,0,0
0:2:27.808,579.879,32.8121,0,0.000885,0,0
0:2:28.615,583.691,33.0328,0,0.000885,0,0
0:2:29.417,587.677,33.2534,0,0.000885,0,0
0:2:30.203,590.902,33.4396,0,0.000885,0,0
0:2:31.001,594.776,33.6602,0,0.000885,0,0
0:2:31.793,598.237,33.8533,0,0.000885,0,0
0:2:32.590,601.996,34.067,0,0.000885,0,0
0:2:33.393,604.874,34.2256,0,0.000885,0,0
0:2:34.201,609.215,34.4738,0,0.000885,0,0
0:2:34.998,612.093,34.6393,0,0.000885,0,0
0:2:35.790,615.496,34.8323,0,0.000885,0,0
0:2:36.587,619.548,35.0598,0,0.000885,0,0
0:2:37.379,622.836,35.246,0,0.000885,0,0
0:2:38.188,626.296,35.4391,0,0.000885,0,0
0:2:38.992,629.877,35.6459,0,0.000885,0,0
0:2:39.789,632.991,35.8183,0,0.000885,0,0
0:2:40.581,637.332,36.0665,0,0.000885,0,0
0:2:41.377,641.029,36.2733,0,0.000885,0,0
0:2:42.171,643.849,36.4319,0,0.000885,0,0
0:2:42.969,646.722,36.5974,0,0.000885,0,0
0:2:43.779,650.366,36.8042,0,0.000885,0,0
0:2:44.578,655.179,37.0731,0,0.000885,0,0
0:2:45.374,658.172,37.2455,0,0.000885,0,0
0:2:46.165,661.224,37.4178,0,0.000885,0,0
0:2:46.963,665.565,37.6661,0,0.000885,0,0
0:2:47.753,668.852,37.8522,0,0.000885,0,0
0:2:48.564,672.197,38.0384,0,0.000885,0,0
0:2:49.370,675.956,38.2521,0,0.000885,0,0
0:2:50.165,679.008,38.4245,0,0.000885,0,0
0:2:50.961,682.589,38.6244,0,0.000885,0,0
0:2:51.752,686.463,38.8451,0,0.000885,0,0
0:2:52.549,689.457,39.0174,0,0.000885,0,0
0:2:53.360,693.095,39.2243,0,0.000885,0,0
0:2:54.165,699.203,39.569,0,0.000885,0,0
0:2:54.956,700.435,39.638,0,0.000885,0,0
0:2:55.750,703.25,39.7965,0,0.000885,0,0
0:2:56.544,706.889,40.0034,0,0.000885,0,0
0:2:57.338,710.826,40.224,0,0.000885,0,0
0:2:58.142,714.816,40.4515,0,0.000885,0,0
0:2:58.950,718.455,40.6584,0,0.000885,0,0
0:2:59.749,721.857,40.8514,0,0.000885,0,0
0:3:0.539,725.087,41.0307,0,0.000885,0,0
0:3:1.338,728.374,41.2169,0,0.000885,0,0
0:3:2.126,731.546,41.3961,0,0.000885,0,0
0:3:2.923,735.651,41.6305,0,0.000885,0,0
0:3:3.735,739.117,41.8236,0,0.000885,0,0
0:3:4.538,742.226,42.0029,0,0.000885,0,0
0:3:5.333,746.1,42.2235,0,0.000885,0,0
0:3:6.136,749.387,42.4097,0,0.000885,0,0
0:3:6.933,752.559,42.5889,0,0.000885,0,0
0:3:7.730,755.553,42.7544,0,0.000885,0,0
0:3:8.539,758.546,42.9268,0,0.000885,0,0
0:3:9.337,762.421,43.1474,0,0.000885,0,0
0:3:10.134,764.062,43.237,0,0.000885,0,0
0:3:10.925,767.176,43.4163,0,0.000885,0,0
0:3:11.730,770.637,43.6093,0,0.000885,0,0
0:3:12.533,770.343,43.5956,0,0.000885,0,0
0:3:13.341,771.224,43.6438,0,0.000885,0,0
0:3:14.144,766.762,43.3887,0,0.000885,0,0
0:3:14.934,756.433,42.8027,0,0.000885,0,0
0:3:15.730,739.588,41.8512,0,0.000885,0,0
0:3:16.527,700.728,39.6517,0,0.000885,0,0
0:3:17.212,580.053,32.8259,0,0.000885,0,0

File: DataFile2021-06-06_051955.csv
Test ID:,Date Tested:,Time:,Test Type:,Diameter Avg. (mm):,Cyl. Corr. Factor:,Height (mm):,Age (days):,Weight (kN):,Break Type:,Ramp Rate (MPa/s):,Load at Break (kN):,Stress at Break (MPa):
12,6/6/2021,05:19,Cylinder,150,1,300,0,13.39,3,0.24,759.2,42.96
Sample Time,Load (kN),Stress (MPa),Long. Strain,Trans. Strain,Chan1 Deflection (mm),Chan2 Deflection (mm)
0:0:18.621,5.80493,0.330948,0,0.000885,0,0
0:0:19.424,12.0814,0.682581,0,0.000885,0,0
0:0:20.229,12.3171,0.69637,0,0.000885,0,0
0:0:21.040,14.9549,0.848055,0,0.000885,0,0
0:0:21.836,18.4156,1.04111,0,0.000885,0,0
0:0:22.642,22.8149,1.28932,0,0.000885,0,0
0:0:23.439,26.5692,1.50306,0,0.000885,0,0
0:0:24.245,31.0842,1.75816,0,0.000885,0,0
0:0:25.053,35.0164,1.9788,0,0.000885,0,0
0:0:25.854,37.6542,2.13048,0,0.000885,0,0
0:0:26.647,40.7012,2.30285,0,0.000885,0,0
0:0:27.446,43.9885,2.48901,0,0.000885,0,0
0:0:28.240,47.7428,2.70274,0,0.000885,0,0
0:0:29.036,51.3191,2.90269,0,0.000885,0,0
0:0:29.849,54.6642,3.09575,0,0.000885,0,0
0:0:30.654,58.3562,3.30259,0,0.000885,0,0
0:0:31.448,61.8748,3.50254,0,0.000885,0,0
0:0:32.244,66.2162,3.74385,0,0.000885,0,0
0:0:33.052,69.7348,3.9438,0,0.000885,0,0
0:0:33.845,73.2533,4.14375,0,0.000885,0,0
0:0:34.654,77.3012,4.37128,0,0.000885,0,0
0:0:35.460,80.4105,4.55054,0,0.000885,0,0
0:0:36.260,82.9905,4.69533,0,0.000885,0,0
0:0:37.054,86.6247,4.90217,0,0.000885,0,0
0:0:37.851,90.4412,5.11591,0,0.000885,0,0
0:0:38.647,94.0176,5.32275,0,0.000885,0,0
0:0:39.449,97.1847,5.50202,0,0.000885,0,0
0:0:40.257,100.939,5.70886,0,0.000885,0,0
0:0:41.057,105.16,5.95018,0,0.000885,0,0
0:0:41.858,108.385,6.13633,0,0.000885,0,0
0:0:42.649,111.379,6.30181,0,0.000885,0,0
0:0:43.448,115.307,6.52244,0,0.000885,0,0
0:0:44.252,118.768,6.72239,0,0.000885,0,0
0:0:45.059,122.58,6.93613,0,0.000885,0,0
0:0:45.859,125.983,7.12918,0,0.000885,0,0
0:0:46.655,129.323,7.31534,0,0.000885,0,0
0:0:47.452,132.139,7.48081,0,0.000885,0,0
0:0:48.246,136.654,7.73592,0,0.000885,0,0
0:0:49.048,139.999,7.92208,0,0.000885,0,0
0:0:49.859,142.695,8.07376,0,0.000885,0,0
0:0:50.662,147.623,8.35645,0,0.000885,0,0
0:0:51.460,150.906,8.5426,0,0.000885,0,0
0:0:52.256,154.429,8.73566,0,0.000885,0,0
0:0:53.053,157.534,8.91492,0,0.000885,0,0
0:0:53.846,160.349,9.0735,0,0.000885,0,0
0:0:54.656,164.749,9.32171,0,0.000885,0,0
0:0:55.464,167.8,9.49408,0,0.000885,0,0
0:0:56.262,171.199,9.68713,0,0.000885,0,0
0:0:57.058,175.189,9.91466,0,0.000885,0,0
0:0:57.853,179.117,10.1353,0,0.000885,0,0
0:0:58.655,182.404,10.3215,0,0.000885,0,0
0:0:59.456,185.744,10.5145,0,0.000885,0,0
0:1:0.265,189.089,10.7007,0,0.000885,0,0
0:1:1.066,193.137,10.9282,0,0.000885,0,0
0:1:1.855,197.007,11.1488,0,0.000885,0,0
0:1:2.648,199.645,11.3005,0,0.000885,0,0
0:1:3.443,203.515,11.5142,0,0.000885,0,0
0:1:4.248,207.038,11.7142,0,0.000885,0,0
0:1:5.052,210.205,11.8935,0,0.000885,0,0
0:1:5.850,213.724,12.0934,0,0.000885,0,0
0:1:6.640,217.536,12.3071,0,0.000885,0,0
0:1:7.432,220.997,12.5071,0,0.000885,0,0
0:1:8.234,224.631,12.7139,0,0.000885,0,0
0:1:9.030,228.327,12.9208,0,0.000885,0,0
0:1:9.835,232.082,13.1345,0,0.000885,0,0
0:1:10.630,235.364,13.3207,0,0.000885,0,0
0:1:11.423,238.825,13.5137,0,0.000885,0,0
0:1:12.232,242.344,13.7137,0,0.000885,0,0
0:1:13.021,245.804,13.9067,0,0.000885,0,0
0:1:13.814,249.438,14.1136,0,0.000885,0,0
0:1:14.621,252.668,14.2997,0,0.000885,0,0
0:1:15.425,256.244,14.4997,0,0.000885,0,0
0:1:16.241,260.234,14.7272,0,0.000885,0,0
0:1:17.044,263.691,14.9203,0,0.000885,0,0
0:1:17.845,267.445,15.134,0,0.000885,0,0
0:1:18.645,270.203,15.2926,0,0.000885,0,0
0:1:19.447,274.251,15.5201,0,0.000885,0,0
0:1:20.249,278.005,15.7338,0,0.000885,0,0
0:1:21.042,280.994,15.8993,0,0.000885,0,0
0:1:21.849,284.633,16.1062,0,0.000885,0,0
0:1:22.640,288.383,16.3199,0,0.000885,0,0
0:1:23.450,291.67,16.506,0,0.000885,0,0
0:1:24.245,294.543,16.6646,0,0.000885,0,0
0:1:25.049,298.591,16.8991,0,0.000885,0,0
0:1:25.854,302.813,17.1335,0,0.000885,0,0
0:1:26.647,305.802,17.3058,0,0.000885,0,0
0:1:27.432,309.325,17.5058,0,0.000885,0,0
0:1:28.246,312.781,17.6988,0,0.000885,0,0
0:1:29.031,316.887,17.9333,0,0.000885,0,0
0:1:29.835,319.645,18.0849,0,0.000885,0,0
0:1:30.637,323.635,18.3125,0,0.000885,0,0
0:1:31.439,327.389,18.5262,0,0.000885,0,0
0:1:32.229,330.494,18.7055,0,0.000885,0,0
0:1:33.038,333.839,18.8916,0,0.000885,0,0
0:1:33.840,337.945,19.1261,0,0.000885,0,0
0:1:34.647,341.521,19.326,0,0.000885,0,0
0:1:35.449,345.04,19.526,0,0.000885,0,0
0:1:36.235,348.207,19.7052,0,0.000885,0,0
0:1:37.029,352.197,19.9327,0,0.000885,0,0
0:1:37.837,355.186,20.0982,0,0.000885,0,0
0:1:38.638,358.06,20.2637,0,0.000885,0,0
0:1:39.451,362.459,20.5119,0,0.000885,0,0
0:1:40.251,365.626,20.6912,0,0.000885,0,0
0:1:41.044,369.79,20.9256,0,0.000885,0,0
0:1:41.841,373.135,21.1117,0,0.000885,0,0
0:1:42.647,376.417,21.2979,0,0.000885,0,0
0:1:43.433,379.762,21.491,0,0.000885,0,0
0:1:44.238,383.69,21.7116,0,0.000885,0,0
0:1:45.041,387.387,21.9184,0,0.000885,0,0
0:1:45.852,391.435,22.1529,0,0.000885,0,0
0:1:46.653,394.25,22.3114,0,0.000885,0,0
0:1:47.441,398,22.5252,0,0.000885,0,0
0:1:48.232,401.403,22.7182,0,0.000885,0,0
0:1:49.036,404.864,22.9113,0,0.000885,0,0
0:1:49.840,408.502,23.1181,0,0.000885,0,0
0:1:50.634,411.901,23.3112,0,0.000885,0,0
0:1:51.437,415.655,23.518,0,0.000885,0,0
0:1:52.248,418.587,23.6904,0,0.000885,0,0
0:1:53.049,422.755,23.9248,0,0.000885,0,0
0:1:53.837,426.037,24.111,0,0.000885,0,0
0:1:54.643,429.556,24.3109,0,0.000885,0,0
0:1:55.445,433.426,24.5247,0,0.000885,0,0
0:1:56.242,437.3,24.7453,0,0.000885,0,0
0:1:57.037,440.232,24.9108,0,0.000885,0,0
0:1:57.844,444.395,25.1452,0,0.000885,0,0
0:1:58.645,446.802,25.2831,0,0.000885,0,0
0:1:59.445,450.614,25.4968,0,0.000885,0,0
0:2:0.249,454.542,25.7243,0,0.000885,0,0
0:2:1.055,458.176,25.9243,0,0.000885,0,0
0:2:1.839,461.343,26.1036,0,0.000885,0,0
0:2:2.635,464.63,26.2897,0,0.000885,0,0
0:2:3.433,468.384,26.5034,0,0.000885,0,0
0:2:4.228,472.019,26.7103,0,0.000885,0,0
0:2:5.033,476.066,26.9378,0,0.000885,0,0
0:2:5.831,479.349,27.124,0,0.000885,0,0
0:2:6.643,483.161,27.3446,0,0.000885,0,0
0:2:7.452,486.213,27.517,0,0.000885,0,0
0:2:8.243,489.029,27.6756,0,0.000885,0,0
0:2:9.032,493.601,27.9307,0,0.000885,0,0
0:2:9.837,496.066,28.0686,0,0.000885,0,0
0:2:10.638,500.581,28.3306,0,0.000885,0,0
0:2:11.446,503.868,28.5098,0,0.000885,0,0
0:2:12.241,507.266,28.7029,0,0.000885,0,0
0:2:13.039,511.199,28.9304,0,0.000885,0,0
0:2:13.840,515.126,29.151,0,0.000885,0,0
0:2:14.641,518.293,29.3303,0,0.000885,0,0
0:2:15.444,521.403,29.5027,0,0.000885,0,0
0:2:16.252,525.041,29.7095,0,0.000885,0,0
0:2:17.046,528.733,29.9232,0,0.000885,0,0
0:2:17.851,531.843,30.0956,0,0.000885,0,0
0:2:18.652,535.361,30.2956,0,0.000885,0,0
0:2:19.456,539.351,30.5231,0,0.000885,0,0
0:2:20.257,542.75,30.7161,0,0.000885,0,0
0:2:21.045,546.562,30.9299,0,0.000885,0,0
0:2:21.848,549.44,31.0885,0,0.000885,0,0
0:2:22.656,553.132,31.3022,0,0.000885,0,0
0:2:23.448,557.238,31.5366,0,0.000885,0,0
0:2:24.257,560.992,31.7435,0,0.000885,0,0
0:2:25.059,564.275,31.9296,0,0.000885,0,0
0:2:25.854,567.62,32.1227,0,0.000885,0,0
0:2:26.643,570.671,32.295,0,0.000885,0,0
0:2:27.443,574.012,32.4812,0,0.000885,0,0
0:2:28.235,577.824,32.6949,0,0.000885,0,0
0:2:29.037,581.52,32.9087,0,0.000885,0,0
0:2:29.842,585.333,33.1224,0,0.000885,0,0
0:2:30.643,589.26,33.343,0,0.000885,0,0
0:2:31.433,591.845,33.4947,0,0.000885,0,0
0:2:32.229,595.835,33.7154,0,0.000885,0,0
0:2:33.049,599.651,33.936,0,0.000885,0,0
0:2:33.845,603.29,34.1359,0,0.000885,0,0
0:2:34.647,606.813,34.3359,0,0.000885,0,0
0:2:35.455,609.807,34.5083,0,0.000885,0,0
0:2:36.255,613.21,34.7013,0,0.000885,0,0
0:2:37.045,616.733,34.9013,0,0.000885,0,0
0:2:37.843,619.958,35.0805,0,0.000885,0,0
0:2:38.654,624.481,35.3356,0,0.000885,0,0
0:2:39.463,627.297,35.5011,0,0.000885,0,0
0:2:40.270,630.936,35.7011,0,0.000885,0,0
0:2:41.065,634.574,35.9079,0,0.000885,0,0
0:2:41.860,638.569,36.1354,0,0.000885,0,0
0:2:42.653,641.678,36.3147,0,0.000885,0,0
0:2:43.447,645.201,36.5077,0,0.000885,0,0
0:2:44.247,649.076,36.7284,0,0.000885,0,0
0:2:45.056,652.536,36.9283,0,0.000885,0,0
0:2:45.851,655.53,37.0938,0,0.000885,0,0
0:2:46.661,658.875,37.2868,0,0.000885,0,0
0:2:47.451,662.749,37.5075,0,0.000885,0,0
0:2:48.248,666.45,37.7143,0,0.000885,0,0
0:2:49.049,669.738,37.9005,0,0.000885,0,0
0:2:49.860,673.55,38.1142,0,0.000885,0,0
0:2:50.664,676.957,38.3073,0,0.000885,0,0
0:2:51.458,680.48,38.5072,0,0.000885,0,0
0:2:52.254,684.292,38.721,0,0.000885,0,0
0:2:53.043,687.873,38.9278,0,0.000885,0,0
0:2:53.852,691.454,39.1277,0,0.000885,0,0
0:2:54.662,694.977,39.3277,0,0.000885,0,0
0:2:55.465,697.677,39.4794,0,0.000885,0,0
0:2:56.260,701.436,39.6931,0,0.000885,0,0
0:2:57.055,705.368,39.9137,0,0.000885,0,0
0:2:57.861,708.713,40.1068,0,0.000885,0,0
0:2:58.649,712.178,40.2999,0,0.000885,0,0
0:2:59.460,715.754,40.5067,0,0.000885,0,0
0:3:0.263,719.513,40.7135,0,0.000885,0,0
0:3:1.057,722.916,40.9066,0,0.000885,0,0
0:3:1.849,726.439,41.1065,0,0.000885,0,0
0:3:2.646,730.02,41.3134,0,0.000885,0,0
0:3:3.439,732.778,41.4651,0,0.000885,0,0
0:3:4.236,736.537,41.6788,0,0.000885,0,0
0:3:5.045,740.411,41.8994,0,0.000885,0,0
0:3:5.845,743.698,42.0856,0,0.000885,0,0
0:3:6.642,746.514,42.2442,0,0.000885,0,0
0:3:7.435,749.45,42.4097,0,0.000885,0,0
0:3:8.242,752.443,42.582,0,0.000885,0,0
0:3:9.041,753.853,42.6579,0,0.000885,0,0
0:3:9.850,754.734,42.7061,0,0.000885,0,0
0:3:10.657,756.963,42.8371,0,0.000885,0,0
0:3:11.461,759.196,42.9612,0,0.000885,0,0
0:3:12.262,752.092,42.5613,0,0.000885,0,0
0:3:13.052,732.72,41.4651,0,0.000885,0,0
0:3:13.845,701.667,39.7069,0,0.000885,0,0
0:3:14.129,624.597,35.3425,0,0.000885,0,0