Folder: Experiment-Files (part 91)

File: DataFile2021-07-28_091328.csv
Test ID:,Date Tested:,Time:,Test Type:,Diameter Avg. (mm):,Cyl. Corr. Factor:,Height (mm):,Age (days):,Weight (kN):,Break Type:,Ramp Rate (MPa/s):,Load at Break (kN):,Stress at Break (MPa):
12,7/28/2021,09:13,Cylinder,150,1,300,0,13.69,3,0.35,2203.71,124.71
Sample Time,Load (kN),Stress (MPa),Long. Strain,Trans. Strain,Chan1 Deflection (mm),Chan2 Deflection (mm)
0:0:8.467,5.51135,0.310264,0,0.000885,0,0
0:0:9.958,13.7228,0.779108,0,0.000885,0,0
0:0:11.450,22.2856,1.26174,0,0.000885,0,0
0:0:12.952,29.7942,1.68922,0,0.000885,0,0
0:0:14.465,36.7156,2.07532,0,0.000885,0,0
0:0:15.974,45.8078,2.59243,0,0.000885,0,0
0:0:17.464,57.8313,3.27501,0,0.000885,0,0
0:0:18.967,72.4348,4.09549,0,0.000885,0,0
0:0:20.475,80.9398,4.57812,0,0.000885,0,0
0:0:21.966,88.1504,4.9918,0,0.000885,0,0
0:0:23.460,97.594,5.5227,0,0.000885,0,0
0:0:24.976,108.328,6.12944,0,0.000885,0,0
0:0:26.472,116.655,6.59828,0,0.000885,0,0
0:0:27.966,125.689,7.11539,0,0.000885,0,0
0:0:29.472,134.839,7.6325,0,0.000885,0,0
0:0:30.978,143.989,8.1496,0,0.000885,0,0
0:0:32.469,153.722,8.70118,0,0.000885,0,0
0:0:33.964,162.462,9.19071,0,0.000885,0,0
0:0:35.481,172.845,9.78366,0,0.000885,0,0
0:0:36.972,182.052,10.3008,0,0.000885,0,0
0:0:38.468,190.909,10.8041,0,0.000885,0,0
0:0:39.974,200.468,11.3419,0,0.000885,0,0
0:0:41.458,209.734,11.8659,0,0.000885,0,0
0:0:42.950,218.706,12.3761,0,0.000885,0,0
0:0:44.458,227.798,12.8932,0,0.000885,0,0
0:0:45.950,237.477,13.4379,0,0.000885,0,0
0:0:47.453,246.156,13.9274,0,0.000885,0,0
0:0:48.955,255.541,14.4583,0,0.000885,0,0
0:0:50.459,264.629,14.9754,0,0.000885,0,0
0:0:51.959,273.837,15.4994,0,0.000885,0,0
0:0:53.459,283.926,16.0648,0,0.000885,0,0
0:0:54.966,292.84,16.5681,0,0.000885,0,0
0:0:56.456,302.519,17.1197,0,0.000885,0,0
0:0:57.956,311.611,17.6368,0,0.000885,0,0
0:0:59.466,320.641,18.147,0,0.000885,0,0
0:1:0.959,329.675,18.6572,0,0.000885,0,0
0:1:2.459,338.825,19.1743,0,0.000885,0,0
0:1:3.955,348.62,19.7259,0,0.000885,0,0
0:1:5.461,357.766,20.243,0,0.000885,0,0
0:1:6.959,366.743,20.7532,0,0.000885,0,0
0:1:8.461,375.772,21.2634,0,0.000885,0,0
0:1:9.962,385.567,21.8219,0,0.000885,0,0
0:1:11.460,395.54,22.3804,0,0.000885,0,0
0:1:12.960,404.161,22.8699,0,0.000885,0,0
0:1:14.462,413.311,23.387,0,0.000885,0,0
0:1:15.960,422.87,23.9317,0,0.000885,0,0
0:1:17.454,432.078,24.4488,0,0.000885,0,0
0:1:18.963,441.286,24.9728,0,0.000885,0,0
0:1:20.463,450.142,25.4761,0,0.000885,0,0
0:1:21.956,459.35,25.9932,0,0.000885,0,0
0:1:23.458,469.674,26.5793,0,0.000885,0,0
0:1:24.961,477.944,27.0481,0,0.000885,0,0
0:1:26.460,486.916,27.5515,0,0.000885,0,0
0:1:27.961,497.24,28.1375,0,0.000885,0,0
0:1:29.456,506.799,28.6822,0,0.000885,0,0
0:1:30.961,516.123,29.2062,0,0.000885,0,0
0:1:32.463,524.748,29.6957,0,0.000885,0,0
0:1:33.950,533.778,30.2059,0,0.000885,0,0
0:1:35.461,543.221,30.7368,0,0.000885,0,0
0:1:36.951,552.251,31.2539,0,0.000885,0,0
0:1:38.463,561.815,31.7917,0,0.000885,0,0
0:1:39.965,570.729,32.295,0,0.000885,0,0
0:1:41.453,579.937,32.819,0,0.000885,0,0
0:1:42.958,589.438,33.3568,0,0.000885,0,0
0:1:44.472,599.242,33.9084,0,0.000885,0,0
0:1:45.970,608.045,34.4117,0,0.000885,0,0
0:1:47.460,617.791,34.9564,0,0.000885,0,0
0:1:48.958,626.714,35.4666,0,0.000885,0,0
0:1:50.461,636.456,36.0182,0,0.000885,0,0
0:1:51.961,645.263,36.5146,0,0.000885,0,0
0:1:53.459,654.538,37.0386,0,0.000885,0,0
0:1:54.970,663.341,37.5351,0,0.000885,0,0
0:1:56.466,672.909,38.0797,0,0.000885,0,0
0:1:57.965,681.89,38.59,0,0.000885,0,0
0:1:59.463,691.107,39.1071,0,0.000885,0,0
0:2:0.967,701.436,39.6931,0,0.000885,0,0
0:2:2.453,710.652,40.2171,0,0.000885,0,0
0:2:3.965,719.166,40.6998,0,0.000885,0,0
0:2:5.479,729.731,41.2927,0,0.000885,0,0
0:2:6.968,738.182,41.7753,0,0.000885,0,0
0:2:8.454,746.87,42.2649,0,0.000885,0,0
0:2:9.972,756.616,42.8164,0,0.000885,0,0
0:2:11.468,765.77,43.3335,0,0.000885,0,0
0:2:12.954,774.693,43.8369,0,0.000885,0,0
0:2:14.471,784.382,44.3884,0,0.000885,0,0
0:2:15.968,793.714,44.9124,0,0.000885,0,0
0:2:17.461,802.108,45.3882,0,0.000885,0,0
0:2:18.962,812.494,45.9811,0,0.000885,0,0
0:2:20.472,822.005,46.5189,0,0.000885,0,0
0:2:21.962,830.928,47.0222,0,0.000885,0,0
0:2:23.469,840.612,47.5669,0,0.000885,0,0
0:2:24.975,849.183,48.0565,0,0.000885,0,0
0:2:26.471,858.867,48.6011,0,0.000885,0,0
0:2:27.961,867.203,49.0769,0,0.000885,0,0
0:2:29.466,877.123,49.6354,0,0.000885,0,0
0:2:30.961,886.281,50.1525,0,0.000885,0,0
0:2:32.469,895.556,50.6765,0,0.000885,0,0
0:2:33.966,904.359,51.1798,0,0.000885,0,0
0:2:35.474,914.928,51.7727,0,0.000885,0,0
0:2:36.961,923.553,52.2623,0,0.000885,0,0
0:2:38.461,933.063,52.8001,0,0.000885,0,0
0:2:39.968,941.871,53.2965,0,0.000885,0,0
0:2:41.464,951.67,53.8549,0,0.000885,0,0
0:2:42.963,960.771,54.3652,0,0.000885,0,0
0:2:44.470,969.695,54.8754,0,0.000885,0,0
0:2:45.972,979.2,55.4132,0,0.000885,0,0
0:2:47.458,988.181,55.9165,0,0.000885,0,0
0:2:48.957,997.162,56.4267,0,0.000885,0,0
0:2:50.463,1006.5,56.9576,0,0.000885,0,0
0:2:51.963,1016.48,57.523,0,0.000885,0,0
0:2:53.460,1025.69,58.0401,0,0.000885,0,0
0:2:54.971,1035.03,58.571,0,0.000885,0,0
0:2:56.464,1044.77,59.1225,0,0.000885,0,0
0:2:57.951,1053.4,59.6121,0,0.000885,0,0
0:2:59.472,1062.91,60.1499,0,0.000885,0,0
0:3:0.973,1071.65,60.6463,0,0.000885,0,0
0:3:2.458,1081.16,61.1841,0,0.000885,0,0
0:3:3.968,1090.44,61.7081,0,0.000885,0,0
0:3:5.471,1099.48,62.2183,0,0.000885,0,0
0:3:6.971,1108.58,62.7354,0,0.000885,0,0
0:3:8.470,1119.43,63.349,0,0.000885,0,0
0:3:9.981,1127.54,63.8041,0,0.000885,0,0
0:3:11.474,1136.81,64.3281,0,0.000885,0,0
0:3:12.961,1146.14,64.859,0,0.000885,0,0
0:3:14.474,1155.95,65.4106,0,0.000885,0,0
0:3:15.976,1164.51,65.9001,0,0.000885,0,0
0:3:17.472,1173.61,66.4103,0,0.000885,0,0
0:3:18.960,1183.24,66.955,0,0.000885,0,0
0:3:20.476,1192.4,67.479,0,0.000885,0,0
0:3:21.962,1201.85,68.0099,0,0.000885,0,0
0:3:23.471,1210.71,68.5132,0,0.000885,0,0
0:3:24.983,1220.81,69.0855,0,0.000885,0,0
0:3:26.474,1230.02,69.6026,0,0.000885,0,0
0:3:27.961,1238.95,70.1128,0,0.000885,0,0
0:3:29.462,1248.22,70.6368,0,0.000885,0,0
0:3:30.964,1257.32,71.147,0,0.000885,0,0
0:3:32.461,1266.53,71.671,0,0.000885,0,0
0:3:33.961,1276.28,72.2226,0,0.000885,0,0
0:3:35.476,1285.26,72.7328,0,0.000885,0,0
0:3:36.962,1294.53,73.2568,0,0.000885,0,0
0:3:38.469,1304.4,73.8153,0,0.000885,0,0
0:3:39.982,1313.08,74.3048,0,0.000885,0,0
0:3:41.472,1323.24,74.8771,0,0.000885,0,0
0:3:42.970,1331.87,75.3666,0,0.000885,0,0
0:3:44.480,1341.2,75.8975,0,0.000885,0,0
0:3:45.978,1350.77,76.4353,0,0.000885,0,0
0:3:47.465,1359.4,76.9248,0,0.000885,0,0
0:3:48.971,1368.44,77.435,0,0.000885,0,0
0:3:50.481,1378.12,77.9866,0,0.000885,0,0
0:3:51.973,1387.34,78.5106,0,0.000885,0,0
0:3:53.471,1396.55,79.0277,0,0.000885,0,0
0:3:54.981,1405.89,79.5586,0,0.000885,0,0
0:3:56.478,1413.87,80.0068,0,0.000885,0,0
0:3:57.966,1424.85,80.6273,0,0.000885,0,0
0:3:59.476,1434.12,81.1513,0,0.000885,0,0
0:4:0.980,1443.51,81.6891,0,0.000885,0,0
0:4:2.470,1452.55,82.1993,0,0.000885,0,0
0:4:3.956,1462.06,82.7371,0,0.000885,0,0
0:4:5.471,1471.28,83.2542,0,0.000885,0,0
0:4:6.971,1479.68,83.7299,0,0.000885,0,0
0:4:8.459,1489.22,84.2746,0,0.000885,0,0
0:4:9.972,1498.46,84.7986,0,0.000885,0,0
0:4:11.471,1507.77,85.3226,0,0.000885,0,0
0:4:12.973,1516.95,85.8397,0,0.000885,0,0
0:4:14.478,1527.08,86.412,0,0.000885,0,0
0:4:15.975,1535.98,86.9153,0,0.000885,0,0
0:4:17.473,1545.22,87.4393,0,0.000885,0,0
0:4:18.965,1554.7,87.9771,0,0.000885,0,0
0:4:20.478,1563.94,88.5011,0,0.000885,0,0
0:4:21.977,1573.07,89.0182,0,0.000885,0,0
0:4:23.466,1582.43,89.5491,0,0.000885,0,0
0:4:24.985,1591.62,90.0662,0,0.000885,0,0
0:4:26.480,1600.39,90.5626,0,0.000885,0,0
0:4:27.980,1609.93,91.1004,0,0.000885,0,0
0:4:29.476,1619.12,91.6244,0,0.000885,0,0
0:4:30.981,1628.36,92.1484,0,0.000885,0,0
0:4:32.469,1637.49,92.6655,0,0.000885,0,0
0:4:33.966,1647.38,93.224,0,0.000885,0,0
0:4:35.480,1656.62,93.748,0,0.000885,0,0
0:4:36.980,1665.87,94.272,0,0.000885,0,0
0:4:38.465,1675.7,94.8236,0,0.000885,0,0
0:4:39.981,1684.18,95.3062,0,0.000885,0,0
0:4:41.478,1693.78,95.8509,0,0.000885,0,0
0:4:42.967,1702.67,96.3542,0,0.000885,0,0
0:4:44.472,1711.86,96.8713,0,0.000885,0,0
0:4:45.968,1721.22,97.4022,0,0.000885,0,0
0:4:47.478,1730.58,97.9331,0,0.000885,0,0
0:4:48.970,1739.89,98.4571,0,0.000885,0,0
0:4:50.482,1749.49,99.0018,0,0.000885,0,0
0:4:51.971,1759.14,99.5465,0,0.000885,0,0
0:4:53.461,1767.97,100.05,0,0.000885,0,0
0:4:54.976,1776.92,100.553,0,0.000885,0,0
0:4:56.482,1786.58,101.098,0,0.000885,0,0
0:4:57.967,1795.76,101.622,0,0.000885,0,0
0:4:59.474,1804.6,102.118,0,0.000885,0,0
0:5:0.981,1814.49,102.677,0,0.000885,0,0
0:5:2.466,1823.38,103.18,0,0.000885,0,0
0:5:3.972,1832.57,103.704,0,0.000885,0,0
0:5:5.482,1842.64,104.269,0,0.000885,0,0
0:5:6.972,1851.71,104.787,0,0.000885,0,0
0:5:8.460,1860.89,105.304,0,0.000885,0,0
0:5:9.969,1870.43,105.841,0,0.000885,0,0
0:5:11.465,1879.5,106.359,0,0.000885,0,0
0:5:12.962,1888.63,106.876,0,0.000885,0,0
0:5:14.469,1897.51,107.379,0,0.000885,0,0
0:5:15.973,1907.05,107.917,0,0.000885,0,0
0:5:17.482,1916.36,108.441,0,0.000885,0,0
0:5:18.979,1925.31,108.951,0,0.000885,0,0
0:5:20.483,1935.08,109.503,0,0.000885,0,0
0:5:21.972,1944.74,110.047,0,0.000885,0,0
0:5:23.461,1953.34,110.537,0,0.000885,0,0
0:5:24.971,1963.05,111.088,0,0.000885,0,0
0:5:26.476,1971.71,111.578,0,0.000885,0,0
0:5:27.974,1981.37,112.123,0,0.000885,0,0
0:5:29.485,1990.49,112.64,0,0.000885,0,0
0:5:30.988,1999.38,113.143,0,0.000885,0,0
0:5:32.475,2009.28,113.701,0,0.000885,0,0
0:5:33.995,2017.75,114.184,0,0.000885,0,0
0:5:35.497,2027.94,114.756,0,0.000885,0,0
0:5:36.986,2036.65,115.253,0,0.000885,0,0
0:5:38.473,2047.08,115.839,0,0.000885,0,0
0:5:39.987,2055.85,116.335,0,0.000885,0,0
0:5:41.480,2065.51,116.887,0,0.000885,0,0
0:5:42.971,2074.28,117.383,0,0.000885,0,0
0:5:44.481,2083.64,117.907,0,0.000885,0,0
0:5:45.985,2092.83,118.431,0,0.000885,0,0
0:5:47.473,2102.31,118.969,0,0.000885,0,0
0:5:48.960,2111.38,119.479,0,0.000885,0,0
0:5:50.472,2119.92,119.962,0,0.000885,0,0
0:5:51.972,2128.63,120.458,0,0.000885,0,0
0:5:53.470,2138.99,121.044,0,0.000885,0,0
0:5:54.984,2148.36,121.575,0,0.000885,0,0
0:5:56.484,2158.43,122.141,0,0.000885,0,0
0:5:57.972,2166.55,122.603,0,0.000885,0,0
0:5:59.473,2175.86,123.127,0,0.000885,0,0
0:6:0.982,2181.1,123.423,0,0.000885,0,0
0:6:2.469,2190.28,123.947,0,0.000885,0,0
0:6:3.968,2201.12,124.561,0,0.000885,0,0
0:6:4.989,2194.34,124.175,0,0.000885,0,0

File: DataFile2021-07-28_092346.csv
Test ID:,Date Tested:,Time:,Test Type:,Diameter Avg. (mm):,Cyl. Corr. Factor:,Height (mm):,Age (days):,Weight (kN):,Break Type:,Ramp Rate (MPa/s):,Load at Break (kN):,Stress at Break (MPa):
12,7/28/2021,09:23,Cylinder,150,1,300,0,13.69,3,0.35,1763.5,99.79
Sample Time,Load (kN),Stress (MPa),Long. Strain,Trans. Strain,Chan1 Deflection (mm),Chan2 Deflection (mm)
0:0:11.684,5.45352,0.310264,0,0.000885,0,0
0:0:12.980,13.0778,0.737739,0,0.000885,0,0
0:0:14.270,19.6478,1.11006,0,0.000885,0,0
0:0:15.568,27.45,1.55132,0,0.000885,0,0
0:0:16.858,33.6641,1.90295,0,0.000885,0,0
0:0:18.176,41.4085,2.34422,0,0.000885,0,0
0:0:19.474,49.9713,2.82685,0,0.000885,0,0
0:0:20.771,58.592,3.31638,0,0.000885,0,0
0:0:22.061,68.854,3.89554,0,0.000885,0,0
0:0:23.378,78.2976,4.43333,0,0.000885,0,0
0:0:24.678,87.3898,4.94354,0,0.000885,0,0
0:0:25.972,93.6084,5.29517,0,0.000885,0,0
0:0:27.275,101.815,5.76402,0,0.000885,0,0
0:0:28.586,109.266,6.1846,0,0.000885,0,0
0:0:29.880,118.941,6.72928,0,0.000885,0,0
0:0:31.172,125.925,7.12918,0,0.000885,0,0
0:0:32.476,133.958,7.57734,0,0.000885,0,0
0:0:33.785,141.818,8.0255,0,0.000885,0,0
0:0:35.082,150.03,8.48745,0,0.000885,0,0
0:0:36.374,158.179,8.94939,0,0.000885,0,0
0:0:37.683,165.514,9.36308,0,0.000885,0,0
0:0:38.992,174.659,9.88708,0,0.000885,0,0
0:0:40.291,182.404,10.3215,0,0.000885,0,0
0:0:41.581,190.264,10.7696,0,0.000885,0,0
0:0:42.883,198.591,11.2385,0,0.000885,0,0
0:0:44.180,205.922,11.6521,0,0.000885,0,0
0:0:45.465,215.014,12.1692,0,0.000885,0,0
0:0:46.753,222.051,12.5622,0,0.000885,0,0
0:0:48.059,230.498,13.0449,0,0.000885,0,0
0:0:49.349,237.886,13.4586,0,0.000885,0,0
0:0:50.638,245.453,13.8929,0,0.000885,0,0
0:0:51.938,254.719,14.4169,0,0.000885,0,0
0:0:53.243,262.872,14.8789,0,0.000885,0,0
0:0:54.540,270.496,15.3064,0,0.000885,0,0
0:0:55.826,277.654,15.7132,0,0.000885,0,0
0:0:57.114,285.861,16.1751,0,0.000885,0,0
0:0:58.424,294.192,16.6508,0,0.000885,0,0
0:0:59.709,302.341,17.1059,0,0.000885,0,0
0:1:0.997,310.201,17.5541,0,0.000885,0,0
0:1:2.287,318.47,18.0229,0,0.000885,0,0
0:1:3.594,326.33,18.4642,0,0.000885,0,0
0:1:4.886,334.306,18.9192,0,0.000885,0,0
0:1:6.174,342.695,19.395,0,0.000885,0,0
0:1:7.466,349.848,19.7948,0,0.000885,0,0
0:1:8.770,358.473,20.2844,0,0.000885,0,0
0:1:10.055,365.92,20.705,0,0.000885,0,0
0:1:11.351,374.131,21.1738,0,0.000885,0,0
0:1:12.654,383.045,21.6771,0,0.000885,0,0
0:1:13.954,390.145,22.077,0,0.000885,0,0
0:1:15.253,398.062,22.5252,0,0.000885,0,0
0:1:16.554,406.919,23.0285,0,0.000885,0,0
0:1:17.860,414.192,23.4353,0,0.000885,0,0
0:1:19.149,422.11,23.8834,0,0.000885,0,0
0:1:20.457,430.379,24.3523,0,0.000885,0,0
0:1:21.748,438.764,24.828,0,0.000885,0,0
0:1:23.055,447.327,25.3107,0,0.000885,0,0
0:1:24.342,454.542,25.7243,0,0.000885,0,0
0:1:25.628,462.869,26.1932,0,0.000885,0,0
0:1:26.912,470.377,26.6207,0,0.000885,0,0
0:1:28.220,478.998,27.1033,0,0.000885,0,0
0:1:29.509,485.977,27.5032,0,0.000885,0,0
0:1:30.791,494.424,27.9789,0,0.000885,0,0
0:1:32.079,502.284,28.4202,0,0.000885,0,0
0:1:33.386,510.789,28.9028,0,0.000885,0,0
0:1:34.673,518.058,29.3165,0,0.000885,0,0
0:1:35.957,526.038,29.7647,0,0.000885,0,0
0:1:37.255,533.893,30.2128,0,0.000885,0,0
0:1:38.553,542.87,30.723,0,0.000885,0,0
0:1:39.838,550.668,31.1643,0,0.000885,0,0
0:1:41.142,558.47,31.6056,0,0.000885,0,0
0:1:42.462,566.739,32.0675,0,0.000885,0,0
0:1:43.760,574.893,32.5295,0,0.000885,0,0
0:1:45.050,582.81,32.9776,0,0.000885,0,0
0:1:46.340,590.964,33.4396,0,0.000885,0,0
0:1:47.644,597.832,33.8326,0,0.000885,0,0
0:1:48.948,606.813,34.3359,0,0.000885,0,0
0:1:50.251,614.976,34.7978,0,0.000885,0,0
0:1:51.545,623.076,35.2598,0,0.000885,0,0
0:1:52.855,630.882,35.7011,0,0.000885,0,0
0:1:54.156,638.511,36.1354,0,0.000885,0,0
0:1:55.462,646.611,36.5905,0,0.000885,0,0
0:1:56.757,655.067,37.0662,0,0.000885,0,0
0:1:58.070,663.047,37.5213,0,0.000885,0,0
0:1:59.363,670.854,37.9625,0,0.000885,0,0
0:2:0.651,678.781,38.4107,0,0.000885,0,0
0:2:1.966,686.823,38.8657,0,0.000885,0,0
0:2:3.278,694.51,39.3001,0,0.000885,0,0
0:2:4.568,702.61,39.7621,0,0.000885,0,0
0:2:5.860,710.888,40.2309,0,0.000885,0,0
0:2:7.165,719.575,40.7204,0,0.000885,0,0
0:2:8.477,727.266,41.1548,0,0.000885,0,0
0:2:9.766,735.954,41.6443,0,0.000885,0,0
0:2:11.059,742.76,42.0304,0,0.000885,0,0
0:2:12.363,751.918,42.5475,0,0.000885,0,0
0:2:13.665,760.664,43.044,0,0.000885,0,0
0:2:14.951,767.883,43.4508,0,0.000885,0,0
0:2:16.254,776.046,43.9127,0,0.000885,0,0
0:2:17.560,783.732,44.3471,0,0.000885,0,0
0:2:18.863,792.126,44.8228,0,0.000885,0,0
0:2:20.161,799.345,45.2365,0,0.000885,0,0
0:2:21.452,807.859,45.7122,0,0.000885,0,0
0:2:22.761,815.782,46.1673,0,0.000885,0,0
0:2:24.059,823.063,46.5741,0,0.000885,0,0
0:2:25.359,831.693,47.0636,0,0.000885,0,0
0:2:26.660,840.024,47.5325,0,0.000885,0,0
0:2:27.971,848.187,47.9944,0,0.000885,0,0
0:2:29.268,856.461,48.4632,0,0.000885,0,0
0:2:30.561,864.445,48.9183,0,0.000885,0,0
0:2:31.854,871.722,49.332,0,0.000885,0,0
0:2:33.166,879.178,49.7526,0,0.000885,0,0
0:2:34.452,887.807,50.2421,0,0.000885,0,0
0:2:35.747,896.673,50.7385,0,0.000885,0,0
0:2:37.054,905.36,51.2349,0,0.000885,0,0
0:2:38.365,912.286,51.6279,0,0.000885,0,0
0:2:39.652,920.266,52.0761,0,0.000885,0,0
0:2:40.946,927.49,52.4829,0,0.000885,0,0
0:2:42.242,936.471,52.9931,0,0.000885,0,0
0:2:43.552,944.687,53.4551,0,0.000885,0,0
0:2:44.851,952.378,53.8963,0,0.000885,0,0
0:2:46.164,960.593,54.3583,0,0.000885,0,0
0:2:47.465,968.578,54.8133,0,0.000885,0,0
0:2:48.771,976.442,55.2546,0,0.000885,0,0
0:2:50.064,984.543,55.7165,0,0.000885,0,0
0:2:51.365,993.057,56.1923,0,0.000885,0,0
0:2:52.674,1000.51,56.6197,0,0.000885,0,0
0:2:53.970,1009.08,57.1024,0,0.000885,0,0
0:2:55.264,1016.94,57.5505,0,0.000885,0,0
0:2:56.563,1024.81,57.9918,0,0.000885,0,0
0:2:57.874,1032.15,58.4055,0,0.000885,0,0
0:2:59.168,1041.54,58.9364,0,0.000885,0,0
0:3:0.463,1049.82,59.4052,0,0.000885,0,0
0:3:1.748,1057.27,59.8327,0,0.000885,0,0
0:3:3.062,1065.14,60.274,0,0.000885,0,0
0:3:4.353,1072.3,60.6808,0,0.000885,0,0
0:3:5.648,1081.1,61.1772,0,0.000885,0,0
0:3:6.946,1089.03,61.6253,0,0.000885,0,0
0:3:8.256,1097.42,62.1011,0,0.000885,0,0
0:3:9.544,1105.23,62.5423,0,0.000885,0,0
0:3:10.838,1113.03,62.9836,0,0.000885,0,0
0:3:12.138,1121.43,63.4593,0,0.000885,0,0
0:3:13.446,1129.47,63.9144,0,0.000885,0,0
0:3:14.736,1137.45,64.3695,0,0.000885,0,0
0:3:16.029,1145.08,64.7969,0,0.000885,0,0
0:3:17.330,1153.3,65.2658,0,0.000885,0,0
0:3:18.635,1161.88,65.7484,0,0.000885,0,0
0:3:19.929,1169.27,66.169,0,0.000885,0,0
0:3:21.218,1177.72,66.6447,0,0.000885,0,0
0:3:22.522,1185.47,67.086,0,0.000885,0,0
0:3:23.826,1193.28,67.5273,0,0.000885,0,0
0:3:25.120,1201.55,67.9961,0,0.000885,0,0
0:3:26.410,1209.36,68.4374,0,0.000885,0,0
0:3:27.723,1217.58,68.8993,0,0.000885,0,0
0:3:29.020,1226.21,69.3888,0,0.000885,0,0
0:3:30.308,1233.49,69.8025,0,0.000885,0,0
0:3:31.602,1241.59,70.2576,0,0.000885,0,0
0:3:32.914,1249.69,70.7195,0,0.000885,0,0
0:3:34.212,1257.9,71.1815,0,0.000885,0,0
0:3:35.500,1266.12,71.6503,0,0.000885,0,0
0:3:36.794,1273.34,72.0571,0,0.000885,0,0
0:3:38.107,1282.09,72.5535,0,0.000885,0,0
0:3:39.400,1289.9,72.9948,0,0.000885,0,0
0:3:40.692,1297.7,73.4361,0,0.000885,0,0
0:3:41.987,1305.39,73.8704,0,0.000885,0,0
0:3:43.300,1313.73,74.3393,0,0.000885,0,0
0:3:44.588,1322.3,74.8288,0,0.000885,0,0
0:3:45.882,1329.28,75.2218,0,0.000885,0,0
0:3:47.178,1338.44,75.7389,0,0.000885,0,0
0:3:48.486,1346.13,76.1733,0,0.000885,0,0
0:3:49.775,1354.41,76.6421,0,0.000885,0,0
0:3:51.067,1362.39,77.0972,0,0.000885,0,0
0:3:52.364,1369.84,77.5178,0,0.000885,0,0
0:3:53.673,1378.36,78.0004,0,0.000885,0,0
0:3:54.963,1385.58,78.4072,0,0.000885,0,0
0:3:56.273,1394.32,78.9036,0,0.000885,0,0
0:3:57.584,1402.54,79.3656,0,0.000885,0,0
0:3:58.881,1409.64,79.7723,0,0.000885,0,0
0:4:0.177,1418.68,80.2826,0,0.000885,0,0
0:4:1.475,1426.49,80.7238,0,0.000885,0,0
0:4:2.787,1434.71,81.1858,0,0.000885,0,0
0:4:4.082,1442.69,81.6408,0,0.000885,0,0
0:4:5.374,1449.97,82.0545,0,0.000885,0,0
0:4:6.666,1458.01,82.5096,0,0.000885,0,0
0:4:7.979,1466.81,83.006,0,0.000885,0,0
0:4:9.275,1474.62,83.4472,0,0.000885,0,0
0:4:10.571,1482.74,83.9092,0,0.000885,0,0
0:4:11.863,1490.51,84.3436,0,0.000885,0,0
0:4:13.178,1498.64,84.8055,0,0.000885,0,0
0:4:14.471,1506.77,85.2675,0,0.000885,0,0
0:4:15.773,1514.36,85.6949,0,0.000885,0,0
0:4:17.077,1522.84,86.1776,0,0.000885,0,0
0:4:18.389,1531.32,86.6533,0,0.000885,0,0
0:4:19.678,1538.8,87.0808,0,0.000885,0,0
0:4:20.971,1547.28,87.5565,0,0.000885,0,0
0:4:22.288,1555.23,88.0047,0,0.000885,0,0
0:4:23.588,1563.18,88.4597,0,0.000885,0,0
0:4:24.875,1571.6,88.9355,0,0.000885,0,0
0:4:26.180,1579.72,89.3974,0,0.000885,0,0
0:4:27.483,1587.26,89.818,0,0.000885,0,0
0:4:28.785,1595.03,90.2593,0,0.000885,0,0
0:4:30.074,1603.51,90.7419,0,0.000885,0,0
0:4:31.376,1611.76,91.2038,0,0.000885,0,0
0:4:32.682,1619.29,91.6313,0,0.000885,0,0
0:4:33.980,1627.77,92.114,0,0.000885,0,0
0:4:35.281,1635.25,92.5345,0,0.000885,0,0
0:4:36.580,1643.55,93.0034,0,0.000885,0,0
0:4:37.888,1651.74,93.4722,0,0.000885,0,0
0:4:39.185,1658.98,93.879,0,0.000885,0,0
0:4:40.476,1667.93,94.3823,0,0.000885,0,0
0:4:41.781,1675.29,94.8029,0,0.000885,0,0
0:4:43.094,1683.89,95.2855,0,0.000885,0,0
0:4:44.381,1692.01,95.7475,0,0.000885,0,0
0:4:45.674,1699.43,96.1681,0,0.000885,0,0
0:4:46.979,1707.85,96.6438,0,0.000885,0,0
0:4:48.289,1716.16,97.1127,0,0.000885,0,0
0:4:49.577,1721.04,97.3884,0,0.000885,0,0
0:4:50.881,1731.23,97.9676,0,0.000885,0,0
0:4:52.177,1739.94,98.464,0,0.000885,0,0
0:4:53.486,1747.31,98.8777,0,0.000885,0,0
0:4:54.775,1753.31,99.2156,0,0.000885,0,0
0:4:56.076,1763.5,99.7947,0,0.000885,0,0
0:4:57.389,1627.12,92.0795,0,0.000885,0,0
0:4:58.684,1641.26,92.8793,0,0.000885,0,0
0:4:59.980,1652.33,93.4998,0,0.000885,0,0
0:5:1.283,1638.13,92.7,0,0.000885,0,0
0:5:2.087,1424.49,80.6066,0,0.000885,0,0