Folder: Experiment-Files (part 24)

File: DataFile2021-06-08_050503.csv
Test ID:,Date Tested:,Time:,Test Type:,Diameter Avg. (mm):,Cyl. Corr. Factor:,Height (mm):,Age (days):,Weight (kN):,Break Type:,Ramp Rate (MPa/s):,Load at Break (kN):,Stress at Break (MPa):
12,6/8/2021,05:05,Cylinder,150,1,301,0,3.6,1,0.24,754.08,42.67
Sample Time,Load (kN),Stress (MPa),Long. Strain,Trans. Strain,Chan1 Deflection (mm),Chan2 Deflection (mm)
0:0:17.495,11.552,0.655002,0,0.000885,0,0
0:0:18.285,19.59,1.11006,0,0.000885,0,0
0:0:19.082,19.2386,1.08937,0,0.000885,0,0
0:0:19.872,18.7092,1.06179,0,0.000885,0,0
0:0:20.669,19.0028,1.07558,0,0.000885,0,0
0:0:21.460,21.6406,1.22727,0,0.000885,0,0
0:0:22.259,26.0399,1.47548,0,0.000885,0,0
0:0:23.061,30.0299,1.69611,0,0.000885,0,0
0:0:23.871,33.722,1.90985,0,0.000885,0,0
0:0:24.673,37.1249,2.1029,0,0.000885,0,0
0:0:25.467,39.9984,2.26148,0,0.000885,0,0
0:0:26.265,43.9306,2.48901,0,0.000885,0,0
0:0:27.058,48.2098,2.73032,0,0.000885,0,0
0:0:27.858,51.2613,2.90269,0,0.000885,0,0
0:0:28.668,54.6019,3.08885,0,0.000885,0,0
0:0:29.476,58.0048,3.2819,0,0.000885,0,0
0:0:30.271,62.3463,3.53012,0,0.000885,0,0
0:0:31.069,65.4556,3.70248,0,0.000885,0,0
0:0:31.865,68.2713,3.86106,0,0.000885,0,0
0:0:32.660,72.3147,4.09549,0,0.000885,0,0
0:0:33.469,75.8956,4.29543,0,0.000885,0,0
0:0:34.275,79.0627,4.4747,0,0.000885,0,0
0:0:35.077,83.0483,4.70222,0,0.000885,0,0
0:0:35.869,86.6247,4.90217,0,0.000885,0,0
0:0:36.669,90.4412,5.11591,0,0.000885,0,0
0:0:37.465,93.5461,5.29517,0,0.000885,0,0
0:0:38.275,97.3004,5.50891,0,0.000885,0,0
0:0:39.084,101.29,5.72954,0,0.000885,0,0
0:0:39.879,103.928,5.88123,0,0.000885,0,0
0:0:40.676,107.211,6.06739,0,0.000885,0,0
0:0:41.468,111.143,6.28802,0,0.000885,0,0
0:0:42.269,115.191,6.51555,0,0.000885,0,0
0:0:43.070,118.532,6.7086,0,0.000885,0,0
0:0:43.879,121.583,6.88097,0,0.000885,0,0
0:0:44.679,125.217,7.08781,0,0.000885,0,0
0:0:45.477,129.381,7.32223,0,0.000885,0,0
0:0:46.275,133.02,7.52907,0,0.000885,0,0
0:0:47.070,135.715,7.68076,0,0.000885,0,0
0:0:47.868,139.238,7.88071,0,0.000885,0,0
0:0:48.680,143.517,8.12202,0,0.000885,0,0
0:0:49.488,147.036,8.32197,0,0.000885,0,0
0:0:50.281,150.381,8.50813,0,0.000885,0,0
0:0:51.079,153.548,8.68739,0,0.000885,0,0
0:0:51.873,156.947,8.88045,0,0.000885,0,0
0:0:52.671,160.234,9.06661,0,0.000885,0,0
0:0:53.477,164.046,9.28034,0,0.000885,0,0
0:0:54.284,167.974,9.50787,0,0.000885,0,0
0:0:55.084,171.261,9.69403,0,0.000885,0,0
0:0:55.878,175.073,9.90777,0,0.000885,0,0
0:0:56.679,178.827,10.1215,0,0.000885,0,0
0:0:57.471,182.168,10.3077,0,0.000885,0,0
0:0:58.283,185.162,10.48,0,0.000885,0,0
0:0:59.090,189.263,10.7076,0,0.000885,0,0
0:0:59.888,192.786,10.9075,0,0.000885,0,0
0:1:0.679,195.953,11.0868,0,0.000885,0,0
0:1:1.468,199.881,11.3143,0,0.000885,0,0
0:1:2.263,202.639,11.466,0,0.000885,0,0
0:1:3.058,206.802,11.7004,0,0.000885,0,0
0:1:3.864,210.499,11.9141,0,0.000885,0,0
0:1:4.657,213.724,12.0934,0,0.000885,0,0
0:1:5.451,217.122,12.2865,0,0.000885,0,0
0:1:6.241,220.174,12.4588,0,0.000885,0,0
0:1:7.032,224.164,12.6864,0,0.000885,0,0
0:1:7.833,227.624,12.8794,0,0.000885,0,0
0:1:8.637,231.201,13.0862,0,0.000885,0,0
0:1:9.436,234.719,13.2793,0,0.000885,0,0
0:1:10.223,238.238,13.4793,0,0.000885,0,0
0:1:11.019,241.876,13.6861,0,0.000885,0,0
0:1:11.823,245.395,13.886,0,0.000885,0,0
0:1:12.618,248.914,14.086,0,0.000885,0,0
0:1:13.429,253.193,14.3273,0,0.000885,0,0
0:1:14.229,255.421,14.4514,0,0.000885,0,0
0:1:15.024,259.233,14.672,0,0.000885,0,0
0:1:15.822,262.636,14.8651,0,0.000885,0,0
0:1:16.628,266.626,15.0857,0,0.000885,0,0
0:1:17.412,270.087,15.2857,0,0.000885,0,0
0:1:18.217,273.076,15.4512,0,0.000885,0,0
0:1:19.019,277.066,15.6787,0,0.000885,0,0
0:1:19.818,281.052,15.9062,0,0.000885,0,0
0:1:20.612,284.748,16.113,0,0.000885,0,0
0:1:21.410,287.916,16.2923,0,0.000885,0,0
0:1:22.223,291.434,16.4923,0,0.000885,0,0
0:1:23.022,294.837,16.6853,0,0.000885,0,0
0:1:23.823,297.239,16.8232,0,0.000885,0,0
0:1:24.620,301.99,17.0921,0,0.000885,0,0
0:1:25.418,305.157,17.2714,0,0.000885,0,0
0:1:26.221,308.738,17.4713,0,0.000885,0,0
0:1:27.011,312.488,17.6851,0,0.000885,0,0
0:1:27.824,316.42,17.9057,0,0.000885,0,0
0:1:28.631,319.938,18.1056,0,0.000885,0,0
0:1:29.435,322.696,18.2642,0,0.000885,0,0
0:1:30.230,326.508,18.4779,0,0.000885,0,0
0:1:31.035,330.32,18.6917,0,0.000885,0,0
0:1:31.831,334.075,18.9054,0,0.000885,0,0
0:1:32.623,337.887,19.1192,0,0.000885,0,0
0:1:33.430,340.289,19.2571,0,0.000885,0,0
0:1:34.233,343.928,19.4639,0,0.000885,0,0
0:1:35.036,347.504,19.6638,0,0.000885,0,0
0:1:35.836,351.61,19.8983,0,0.000885,0,0
0:1:36.635,354.892,20.0844,0,0.000885,0,0
0:1:37.438,358.647,20.2982,0,0.000885,0,0
0:1:38.233,362.05,20.4912,0,0.000885,0,0
0:1:39.038,365.684,20.6912,0,0.000885,0,0
0:1:39.831,368.971,20.8773,0,0.000885,0,0
0:1:40.635,372.663,21.0911,0,0.000885,0,0
0:1:41.434,376.066,21.2841,0,0.000885,0,0
0:1:42.233,379.647,21.4841,0,0.000885,0,0
0:1:43.036,383.459,21.6978,0,0.000885,0,0
0:1:43.836,386.332,21.8633,0,0.000885,0,0
0:1:44.631,389.851,22.0632,0,0.000885,0,0
0:1:45.436,393.663,22.277,0,0.000885,0,0
0:1:46.231,397.004,22.4631,0,0.000885,0,0
0:1:47.025,400.878,22.6838,0,0.000885,0,0
0:1:47.832,404.161,22.8699,0,0.000885,0,0
0:1:48.637,407.795,23.0768,0,0.000885,0,0
0:1:49.434,411.607,23.2905,0,0.000885,0,0
0:1:50.235,415.13,23.4904,0,0.000885,0,0
0:1:51.024,418.413,23.6766,0,0.000885,0,0
0:1:51.823,422.047,23.8834,0,0.000885,0,0
0:1:52.612,424.805,24.042,0,0.000885,0,0
0:1:53.416,428.911,24.2695,0,0.000885,0,0
0:1:54.219,432.607,24.4833,0,0.000885,0,0
0:1:55.033,436.068,24.6763,0,0.000885,0,0
0:1:55.833,439.587,24.8763,0,0.000885,0,0
0:1:56.635,443.279,25.0831,0,0.000885,0,0
0:1:57.424,446.917,25.29,0,0.000885,0,0
0:1:58.228,450.494,25.4899,0,0.000885,0,0
0:1:59.035,453.839,25.683,0,0.000885,0,0
0:1:59.828,457.651,25.8967,0,0.000885,0,0
0:2:0.634,461.636,26.1242,0,0.000885,0,0
0:2:1.418,463.807,26.2483,0,0.000885,0,0
0:2:2.221,467.384,26.4483,0,0.000885,0,0
0:2:3.017,471.374,26.6758,0,0.000885,0,0
0:2:3.820,475.128,26.8896,0,0.000885,0,0
0:2:4.615,478.589,27.0826,0,0.000885,0,0
0:2:5.422,482.285,27.2894,0,0.000885,0,0
0:2:6.225,485.51,27.4756,0,0.000885,0,0
0:2:7.023,489.264,27.6893,0,0.000885,0,0
0:2:7.818,492.841,27.8893,0,0.000885,0,0
0:2:8.623,496.123,28.0755,0,0.000885,0,0
0:2:9.421,499.82,28.2823,0,0.000885,0,0
0:2:10.234,503.516,28.496,0,0.000885,0,0
0:2:11.029,507.56,28.7236,0,0.000885,0,0
0:2:11.822,509.788,28.8477,0,0.000885,0,0
0:2:12.618,513.307,29.0476,0,0.000885,0,0
0:2:13.424,517.475,29.282,0,0.000885,0,0
0:2:14.224,520.642,29.4613,0,0.000885,0,0
0:2:15.024,524.921,29.7026,0,0.000885,0,0
0:2:15.826,528.088,29.8819,0,0.000885,0,0
0:2:16.624,531.665,30.0887,0,0.000885,0,0
0:2:17.418,535.655,30.3094,0,0.000885,0,0
0:2:18.236,538.413,30.4679,0,0.000885,0,0
0:2:19.039,542.047,30.6748,0,0.000885,0,0
0:2:19.837,546.153,30.9092,0,0.000885,0,0
0:2:20.630,548.853,31.0609,0,0.000885,0,0
0:2:21.436,552.665,31.2746,0,0.000885,0,0
0:2:22.231,556.477,31.4884,0,0.000885,0,0
0:2:23.035,559.76,31.6745,0,0.000885,0,0
0:2:23.839,563.043,31.8607,0,0.000885,0,0
0:2:24.639,566.566,32.0606,0,0.000885,0,0
0:2:25.428,570.493,32.2813,0,0.000885,0,0
0:2:26.238,574.012,32.4812,0,0.000885,0,0
0:2:27.030,577.766,32.6949,0,0.000885,0,0
0:2:27.817,580.875,32.8742,0,0.000885,0,0
0:2:28.623,585.039,33.1086,0,0.000885,0,0
0:2:29.423,587.735,33.2603,0,0.000885,0,0
0:2:30.234,591.609,33.4809,0,0.000885,0,0
0:2:31.030,594.776,33.6602,0,0.000885,0,0
0:2:31.821,598.708,33.8808,0,0.000885,0,0
0:2:32.618,601.822,34.0532,0,0.000885,0,0
0:2:33.425,605.812,34.2807,0,0.000885,0,0
0:2:34.230,608.984,34.46,0,0.000885,0,0
0:2:35.024,612.916,34.6806,0,0.000885,0,0
0:2:35.817,616.79,34.9013,0,0.000885,0,0
0:2:36.621,620.015,35.0874,0,0.000885,0,0
0:2:37.414,623.832,35.3012,0,0.000885,0,0
0:2:38.219,627.177,35.4942,0,0.000885,0,0
0:2:39.024,630.291,35.6666,0,0.000885,0,0
0:2:39.822,633.4,35.8458,0,0.000885,0,0
0:2:40.624,637.332,36.0665,0,0.000885,0,0
0:2:41.420,641.62,36.3078,0,0.000885,0,0
0:2:42.214,644.73,36.4871,0,0.000885,0,0
0:2:43.012,648.426,36.6939,0,0.000885,0,0
0:2:43.821,651.482,36.8663,0,0.000885,0,0
0:2:44.621,655.472,37.0938,0,0.000885,0,0
0:2:45.427,658.702,37.2731,0,0.000885,0,0
0:2:46.228,662.634,37.5006,0,0.000885,0,0
0:2:47.026,665.921,37.6867,0,0.000885,0,0
0:2:47.817,668.915,37.8522,0,0.000885,0,0
0:2:48.625,672.495,38.0522,0,0.000885,0,0
0:2:49.430,676.606,38.2866,0,0.000885,0,0
0:2:50.226,679.537,38.4521,0,0.000885,0,0
0:2:51.021,683.825,38.6934,0,0.000885,0,0
0:2:51.814,687.112,38.8795,0,0.000885,0,0
0:2:52.610,690.4,39.0657,0,0.000885,0,0
0:2:53.419,694.332,39.2932,0,0.000885,0,0
0:2:54.224,697.97,39.5001,0,0.000885,0,0
0:2:55.037,701.142,39.6793,0,0.000885,0,0
0:2:55.833,704.487,39.8655,0,0.000885,0,0
0:2:56.625,708.006,40.0654,0,0.000885,0,0
0:2:57.430,711.649,40.2723,0,0.000885,0,0
0:2:58.245,715.932,40.5136,0,0.000885,0,0
0:2:59.050,717.987,40.6308,0,0.000885,0,0
0:2:59.848,721.275,40.817,0,0.000885,0,0
0:3:0.641,725.674,41.0652,0,0.000885,0,0
0:3:1.438,728.436,41.2238,0,0.000885,0,0
0:3:2.228,731.955,41.4237,0,0.000885,0,0
0:3:3.026,735.536,41.6236,0,0.000885,0,0
0:3:3.838,739.001,41.8167,0,0.000885,0,0
0:3:4.646,740.291,41.8925,0,0.000885,0,0
0:3:5.441,743.814,42.0925,0,0.000885,0,0
0:3:6.231,748.275,42.3407,0,0.000885,0,0
0:3:7.027,753.146,42.6165,0,0.000885,0,0
0:3:7.824,753.969,42.6648,0,0.000885,0,0
0:3:8.630,754.263,42.6854,0,0.000885,0,0
0:3:9.424,746.572,42.2442,0,0.000885,0,0
0:3:10.219,699.26,39.569,0,0.000885,0,0
0:3:11.039,587.445,33.2396,0,0.000885,0,0
0:3:11.216,545.859,30.8885,0,0.000885,0,0

File: DataFile2021-06-08_050942.csv
Test ID:,Date Tested:,Time:,Test Type:,Diameter Avg. (mm):,Cyl. Corr. Factor:,Height (mm):,Age (days):,Weight (kN):,Break Type:,Ramp Rate (MPa/s):,Load at Break (kN):,Stress at Break (MPa):
12,6/8/2021,05:09,Cylinder,150,1,300,0,3.6,1,0.24,852.64,48.25
Sample Time,Load (kN),Stress (MPa),Long. Strain,Trans. Strain,Chan1 Deflection (mm),Chan2 Deflection (mm)
0:0:13.916,5.57362,0.317159,0,0.000885,0,0
0:0:14.811,17.1835,0.972161,0,0.000885,0,0
0:0:15.714,16.3027,0.923897,0,0.000885,0,0
0:0:16.607,16.2449,0.917003,0,0.000885,0,0
0:0:17.509,20.9378,1.1859,0,0.000885,0,0
0:0:18.415,25.3371,1.43411,0,0.000885,0,0
0:0:19.314,29.7942,1.68922,0,0.000885,0,0
0:0:20.228,33.8421,1.91674,0,0.000885,0,0
0:0:21.130,37.4184,2.11669,0,0.000885,0,0
0:0:22.025,41.6398,2.35801,0,0.000885,0,0
0:0:22.923,45.6877,2.58553,0,0.000885,0,0
0:0:23.821,49.4998,2.79927,0,0.000885,0,0
0:0:24.723,53.432,3.0268,0,0.000885,0,0
0:0:25.634,57.3598,3.24743,0,0.000885,0,0
0:0:26.531,61.4077,3.47496,0,0.000885,0,0
0:0:27.428,65.5134,3.70938,0,0.000885,0,0
0:0:28.323,69.0898,3.90933,0,0.000885,0,0
0:0:29.217,72.4348,4.09549,0,0.000885,0,0
0:0:30.130,77.7727,4.39886,0,0.000885,0,0
0:0:31.040,81.5848,4.61949,0,0.000885,0,0
0:0:31.938,84.9254,4.80565,0,0.000885,0,0
0:0:32.831,89.4404,5.06075,0,0.000885,0,0
0:0:33.726,92.6075,5.24002,0,0.000885,0,0
0:0:34.627,97.594,5.5227,0,0.000885,0,0
0:0:35.538,100.525,5.68817,0,0.000885,0,0
0:0:36.441,105.338,5.96397,0,0.000885,0,0
0:0:37.335,108.737,6.15012,0,0.000885,0,0
0:0:38.233,113.43,6.41902,0,0.000885,0,0
0:0:39.131,116.481,6.59139,0,0.000885,0,0
0:0:40.043,121.29,6.86028,0,0.000885,0,0
0:0:40.946,125.338,7.09471,0,0.000885,0,0
0:0:41.843,128.442,7.26707,0,0.000885,0,0
0:0:42.741,132.784,7.51529,0,0.000885,0,0
0:0:43.637,137.068,7.7566,0,0.000885,0,0
0:0:44.541,140.995,7.97723,0,0.000885,0,0
0:0:45.451,144.865,8.19787,0,0.000885,0,0
0:0:46.348,148.677,8.4116,0,0.000885,0,0
0:0:47.247,153.134,8.66671,0,0.000885,0,0
0:0:48.142,156.947,8.88045,0,0.000885,0,0
0:0:49.035,160.585,9.08729,0,0.000885,0,0
0:0:49.949,164.749,9.32171,0,0.000885,0,0
0:0:50.857,169.206,9.57682,0,0.000885,0,0
0:0:51.754,172.373,9.75608,0,0.000885,0,0
0:0:52.647,176.479,9.98361,0,0.000885,0,0
0:0:53.545,180.82,10.2318,0,0.000885,0,0
0:0:54.444,184.926,10.4662,0,0.000885,0,0
0:0:55.357,188.502,10.6662,0,0.000885,0,0
0:0:56.257,192.844,10.9144,0,0.000885,0,0
0:0:57.148,197.243,11.1626,0,0.000885,0,0
0:0:58.040,200.29,11.335,0,0.000885,0,0
0:0:58.928,204.689,11.5832,0,0.000885,0,0
0:0:59.824,207.741,11.7556,0,0.000885,0,0
0:1:0.727,212.198,12.0107,0,0.000885,0,0
0:1:1.622,216.184,12.2313,0,0.000885,0,0
0:1:2.511,219.764,12.4381,0,0.000885,0,0
0:1:3.397,224.457,12.7001,0,0.000885,0,0
0:1:4.301,228.327,12.9208,0,0.000885,0,0
0:1:5.207,231.437,13.0931,0,0.000885,0,0
0:1:6.102,236.187,13.362,0,0.000885,0,0
0:1:6.990,239.879,13.5758,0,0.000885,0,0
0:1:7.900,243.985,13.8102,0,0.000885,0,0
0:1:8.800,248.211,14.0446,0,0.000885,0,0
0:1:9.699,251.671,14.2446,0,0.000885,0,0
0:1:10.601,255.773,14.4721,0,0.000885,0,0
0:1:11.494,260.234,14.7272,0,0.000885,0,0
0:1:12.393,263.811,14.9271,0,0.000885,0,0
0:1:13.280,267.859,15.1547,0,0.000885,0,0
0:1:14.169,271.551,15.3684,0,0.000885,0,0
0:1:15.073,275.95,15.6166,0,0.000885,0,0
0:1:15.973,279.295,15.8028,0,0.000885,0,0
0:1:16.860,283.107,16.0234,0,0.000885,0,0
0:1:17.751,288.618,16.3337,0,0.000885,0,0
0:1:18.641,291.786,16.5129,0,0.000885,0,0
0:1:19.542,295.304,16.7129,0,0.000885,0,0
0:1:20.442,299.116,16.9266,0,0.000885,0,0
0:1:21.333,303.342,17.1679,0,0.000885,0,0
0:1:22.226,307.679,17.4093,0,0.000885,0,0
0:1:23.114,311.963,17.6506,0,0.000885,0,0
0:1:24.000,314.658,17.8092,0,0.000885,0,0
0:1:24.907,319.058,18.0574,0,0.000885,0,0
0:1:25.809,323.986,18.3332,0,0.000885,0,0
0:1:26.705,327.505,18.5331,0,0.000885,0,0
0:1:27.593,331.139,18.74,0,0.000885,0,0
0:1:28.486,334.368,18.9192,0,0.000885,0,0
0:1:29.375,338.883,19.1743,0,0.000885,0,0
0:1:30.282,343.576,19.4432,0,0.000885,0,0
0:1:31.177,347.388,19.657,0,0.000885,0,0
0:1:32.069,350.729,19.85,0,0.000885,0,0
0:1:32.957,354.835,20.0775,0,0.000885,0,0
0:1:33.845,358.94,20.312,0,0.000885,0,0
0:1:34.751,362.637,20.5188,0,0.000885,0,0
0:1:35.652,365.977,20.7119,0,0.000885,0,0
0:1:36.540,371.022,20.9945,0,0.000885,0,0
0:1:37.429,374.189,21.1738,0,0.000885,0,0
0:1:38.319,378.352,21.4082,0,0.000885,0,0
0:1:39.213,382.814,21.6633,0,0.000885,0,0
0:1:40.116,386.448,21.8702,0,0.000885,0,0
0:1:41.008,389.967,22.0701,0,0.000885,0,0
0:1:41.899,393.485,22.2701,0,0.000885,0,0
0:1:42.790,397.827,22.5114,0,0.000885,0,0
0:1:43.678,402.106,22.7527,0,0.000885,0,0
0:1:44.583,405.802,22.9664,0,0.000885,0,0
0:1:45.483,410.495,23.2284,0,0.000885,0,0
0:1:46.372,414.952,23.4835,0,0.000885,0,0
0:1:47.258,418.062,23.6559,0,0.000885,0,0
0:1:48.147,421.989,23.8765,0,0.000885,0,0
0:1:49.041,425.859,24.0972,0,0.000885,0,0
0:1:49.947,430.027,24.3316,0,0.000885,0,0
0:1:50.841,434.133,24.566,0,0.000885,0,0
0:1:51.731,437.652,24.766,0,0.000885,0,0
0:1:52.623,441.464,24.9797,0,0.000885,0,0
0:1:53.509,445.156,25.1934,0,0.000885,0,0
0:1:54.406,449.733,25.4485,0,0.000885,0,0
0:1:55.309,453.487,25.6623,0,0.000885,0,0
0:1:56.205,457.531,25.8898,0,0.000885,0,0
0:1:57.105,460.76,26.076,0,0.000885,0,0
0:1:58.001,465.217,26.3242,0,0.000885,0,0
0:1:58.892,469.617,26.5724,0,0.000885,0,0
0:1:59.793,473.78,26.8137,0,0.000885,0,0
0:2:0.693,476.947,26.993,0,0.000885,0,0
0:2:1.583,480.817,27.2067,0,0.000885,0,0
0:2:2.472,484.923,27.4411,0,0.000885,0,0
0:2:3.362,489.38,27.6962,0,0.000885,0,0
0:2:4.263,493.601,27.9307,0,0.000885,0,0
0:2:5.167,496.359,28.0892,0,0.000885,0,0
0:2:6.056,500.465,28.3237,0,0.000885,0,0
0:2:6.949,505.331,28.5926,0,0.000885,0,0
0:2:7.840,509.028,28.8063,0,0.000885,0,0
0:2:8.727,512.956,29.0269,0,0.000885,0,0
0:2:9.634,516.358,29.22,0,0.000885,0,0
0:2:10.532,520.642,29.4613,0,0.000885,0,0
0:2:11.425,525.041,29.7095,0,0.000885,0,0
0:2:12.312,528.209,29.8888,0,0.000885,0,0
0:2:13.208,532.959,30.1577,0,0.000885,0,0
0:2:14.103,536.358,30.3507,0,0.000885,0,0
0:2:15.009,540.521,30.5851,0,0.000885,0,0
0:2:15.917,544.92,30.8334,0,0.000885,0,0
0:2:16.824,548.853,31.0609,0,0.000885,0,0
0:2:17.712,552.313,31.2539,0,0.000885,0,0
0:2:18.612,556.65,31.5021,0,0.000885,0,0
0:2:19.514,560.111,31.6952,0,0.000885,0,0
0:2:20.420,564.337,31.9365,0,0.000885,0,0
0:2:21.314,568.616,32.1778,0,0.000885,0,0
0:2:22.206,572.019,32.3709,0,0.000885,0,0
0:2:23.108,576.592,32.626,0,0.000885,0,0
0:2:24.027,580.462,32.8466,0,0.000885,0,0
0:2:24.932,584.745,33.0879,0,0.000885,0,0
0:2:25.830,588.148,33.281,0,0.000885,0,0
0:2:26.721,592.134,33.5085,0,0.000885,0,0
0:2:27.624,595.95,33.7223,0,0.000885,0,0
0:2:28.525,600.412,33.9774,0,0.000885,0,0
0:2:29.435,603.757,34.1635,0,0.000885,0,0
0:2:30.342,607.632,34.3842,0,0.000885,0,0
0:2:31.234,612.68,34.6737,0,0.000885,0,0
0:2:32.127,616.555,34.8875,0,0.000885,0,0
0:2:33.022,619.606,35.0598,0,0.000885,0,0
0:2:33.921,624.477,35.3356,0,0.000885,0,0
0:2:34.830,629.001,35.5907,0,0.000885,0,0
0:2:35.728,632.11,35.77,0,0.000885,0,0
0:2:36.622,635.397,35.9562,0,0.000885,0,0
0:2:37.519,640.095,36.2251,0,0.000885,0,0
0:2:38.417,644.614,36.4802,0,0.000885,0,0
0:2:39.321,648.546,36.7008,0,0.000885,0,0
0:2:40.227,652.478,36.9214,0,0.000885,0,0
0:2:41.127,655.53,37.0938,0,0.000885,0,0
0:2:42.019,659.524,37.3213,0,0.000885,0,0
0:2:42.908,663.866,37.5695,0,0.000885,0,0
0:2:43.807,668.443,37.8246,0,0.000885,0,0
0:2:44.716,671.966,38.0246,0,0.000885,0,0
0:2:45.616,675.431,38.2245,0,0.000885,0,0
0:2:46.516,679.306,38.4383,0,0.000885,0,0
0:2:47.412,684.234,38.721,0,0.000885,0,0
0:2:48.304,687.815,38.9209,0,0.000885,0,0
0:2:49.216,691.805,39.1484,0,0.000885,0,0
0:2:50.125,695.328,39.3484,0,0.000885,0,0
0:2:51.021,699.554,39.5897,0,0.000885,0,0
0:2:51.914,703.135,39.7896,0,0.000885,0,0
0:2:52.808,708.126,40.0723,0,0.000885,0,0
0:2:53.699,711.764,40.2792,0,0.000885,0,0
0:2:54.612,715.697,40.4998,0,0.000885,0,0
0:2:55.515,719.398,40.7066,0,0.000885,0,0
0:2:56.417,722.978,40.9135,0,0.000885,0,0
0:2:57.312,727.907,41.1893,0,0.000885,0,0
0:2:58.215,730.723,41.3479,0,0.000885,0,0
0:2:59.113,735.536,41.6236,0,0.000885,0,0
0:3:0.026,739.179,41.8305,0,0.000885,0,0
0:3:0.929,743.756,42.0856,0,0.000885,0,0
0:3:1.828,747.452,42.2993,0,0.000885,0,0
0:3:2.724,750.975,42.4993,0,0.000885,0,0
0:3:3.619,755.259,42.7406,0,0.000885,0,0
0:3:4.518,758.546,42.9268,0,0.000885,0,0
0:3:5.428,763.479,43.2025,0,0.000885,0,0
0:3:6.323,767.412,43.4232,0,0.000885,0,0
0:3:7.218,771.228,43.6438,0,0.000885,0,0
0:3:8.123,774.983,43.8576,0,0.000885,0,0
0:3:9.025,778.915,44.0782,0,0.000885,0,0
0:3:9.932,782.909,44.3057,0,0.000885,0,0
0:3:10.829,787.077,44.5401,0,0.000885,0,0
0:3:11.733,790.658,44.7401,0,0.000885,0,0
0:3:12.625,794.764,44.9745,0,0.000885,0,0
0:3:13.515,798.932,45.2089,0,0.000885,0,0
0:3:14.425,802.926,45.4365,0,0.000885,0,0
0:3:15.331,806.801,45.6571,0,0.000885,0,0
0:3:16.225,811.2,45.9053,0,0.000885,0,0
0:3:17.115,814.02,46.0639,0,0.000885,0,0
0:3:18.019,819.007,46.3466,0,0.000885,0,0
0:3:18.917,822.939,46.5672,0,0.000885,0,0
0:3:19.827,826.288,46.7602,0,0.000885,0,0
0:3:20.728,830.866,47.0153,0,0.000885,0,0
0:3:21.630,833.975,47.1946,0,0.000885,0,0
0:3:22.525,837.849,47.4152,0,0.000885,0,0
0:3:23.419,842.017,47.6497,0,0.000885,0,0
0:3:24.325,845.189,47.8289,0,0.000885,0,0
0:3:25.233,848.712,48.0289,0,0.000885,0,0
0:3:26.127,852.173,48.2219,0,0.000885,0,0
0:3:27.031,851.35,48.1737,0,0.000885,0,0
0:3:27.919,836.559,47.3394,0,0.000885,0,0
0:3:28.642,679.773,38.4659,0,0.000885,0,0