Folder: Experiment-Files (part 21)

File: DataFile2021-06-08_034313.csv
Test ID:,Date Tested:,Time:,Test Type:,Diameter Avg. (mm):,Cyl. Corr. Factor:,Height (mm):,Age (days):,Weight (kN):,Break Type:,Ramp Rate (MPa/s):,Load at Break (kN):,Stress at Break (MPa):
12,6/8/2021,03:43,Cylinder,100,1,200,0,3.6,3,0.24,613.62,78.13
Sample Time,Load (kN),Stress (MPa),Long. Strain,Trans. Strain,Chan1 Deflection (mm),Chan2 Deflection (mm)
0:0:11.698,5.33787,0.682581,0,0.000885,0,0
0:0:13.108,9.91064,1.26174,0,0.000885,0,0
0:0:14.498,10.3243,1.3169,0,0.000885,0,0
0:0:15.915,12.8465,1.63406,0,0.000885,0,0
0:0:17.315,16.2449,2.06843,0,0.000885,0,0
0:0:18.724,13.3714,1.70301,0,0.000885,0,0
0:0:20.120,24.8077,3.1578,0,0.000885,0,0
0:0:21.515,24.5141,3.12333,0,0.000885,0,0
0:0:22.924,27.3299,3.48185,0,0.000885,0,0
0:0:24.326,30.0878,3.83349,0,0.000885,0,0
0:0:25.716,32.6677,4.15754,0,0.000885,0,0
0:0:27.114,35.4835,4.51607,0,0.000885,0,0
0:0:28.531,38.5349,4.90907,0,0.000885,0,0
0:0:29.930,40.5856,5.16417,0,0.000885,0,0
0:0:31.322,43.8105,5.57786,0,0.000885,0,0
0:0:32.729,46.3905,5.90881,0,0.000885,0,0
0:0:34.131,48.797,6.21218,0,0.000885,0,0
0:0:35.525,51.7862,6.59139,0,0.000885,0,0
0:0:36.929,54.6019,6.94992,0,0.000885,0,0
0:0:38.343,58.1827,7.40497,0,0.000885,0,0
0:0:39.737,60.1177,7.65318,0,0.000885,0,0
0:0:41.133,63.0491,8.0255,0,0.000885,0,0
0:0:42.533,65.6869,8.36334,0,0.000885,0,0
0:0:43.939,68.5604,8.72876,0,0.000885,0,0
0:0:45.331,71.6119,9.11487,0,0.000885,0,0
0:0:46.727,73.8405,9.40445,0,0.000885,0,0
0:0:48.135,76.892,9.79056,0,0.000885,0,0
0:0:49.533,79.1783,10.0801,0,0.000885,0,0
0:0:50.925,81.9941,10.4387,0,0.000885,0,0
0:0:52.322,84.9833,10.8179,0,0.000885,0,0
0:0:53.738,88.0926,11.2178,0,0.000885,0,0
0:0:55.129,90.4991,11.5211,0,0.000885,0,0
0:0:56.529,93.4304,11.8935,0,0.000885,0,0
0:0:57.937,96.1261,12.2382,0,0.000885,0,0
0:0:59.338,98.3546,12.5209,0,0.000885,0,0
0:1:0.730,101.406,12.9139,0,0.000885,0,0
0:1:2.127,104.337,13.2862,0,0.000885,0,0
0:1:3.539,106.86,13.6034,0,0.000885,0,0
0:1:4.932,109.618,13.955,0,0.000885,0,0
0:1:6.330,112.255,14.2928,0,0.000885,0,0
0:1:7.737,114.898,14.6307,0,0.000885,0,0
0:1:9.143,118.652,15.1064,0,0.000885,0,0
0:1:10.532,120.467,15.3408,0,0.000885,0,0
0:1:11.933,123.754,15.7545,0,0.000885,0,0
0:1:13.345,125.925,16.0303,0,0.000885,0,0
0:1:14.745,128.62,16.375,0,0.000885,0,0
0:1:16.134,131.258,16.7129,0,0.000885,0,0
0:1:17.530,134.074,17.0714,0,0.000885,0,0
0:1:18.945,136.947,17.4368,0,0.000885,0,0
0:1:20.336,139.821,17.8023,0,0.000885,0,0
0:1:21.726,142.757,18.1746,0,0.000885,0,0
0:1:23.139,145.573,18.5331,0,0.000885,0,0
0:1:24.536,148.504,18.9054,0,0.000885,0,0
0:1:25.922,151.493,19.2915,0,0.000885,0,0
0:1:27.320,153.664,19.5673,0,0.000885,0,0
0:1:28.736,156.128,19.8776,0,0.000885,0,0
0:1:30.128,159.18,20.2637,0,0.000885,0,0
0:1:31.528,162.053,20.636,0,0.000885,0,0
0:1:32.936,164.633,20.9601,0,0.000885,0,0
0:1:34.338,167.449,21.3186,0,0.000885,0,0
0:1:35.732,170.087,21.6564,0,0.000885,0,0
0:1:37.137,172.724,21.9943,0,0.000885,0,0
0:1:38.546,176.127,22.4286,0,0.000885,0,0
0:1:39.941,178.765,22.7596,0,0.000885,0,0
0:1:41.333,180.878,23.0285,0,0.000885,0,0
0:1:42.739,184.045,23.4353,0,0.000885,0,0
0:1:44.138,187.154,23.8283,0,0.000885,0,0
0:1:45.534,189.089,24.0765,0,0.000885,0,0
0:1:46.922,192.021,24.4488,0,0.000885,0,0
0:1:48.328,195.13,24.8418,0,0.000885,0,0
0:1:49.710,197.301,25.1176,0,0.000885,0,0
0:1:51.094,200.641,25.5451,0,0.000885,0,0
0:1:52.485,202.461,25.7795,0,0.000885,0,0
0:1:53.879,206.157,26.2483,0,0.000885,0,0
0:1:55.261,208.679,26.5724,0,0.000885,0,0
0:1:56.646,211.789,26.9654,0,0.000885,0,0
0:1:58.047,213.897,27.2343,0,0.000885,0,0
0:1:59.432,216.304,27.5377,0,0.000885,0,0
0:2:0.823,219.707,27.972,0,0.000885,0,0
0:2:2.215,221.993,28.2616,0,0.000885,0,0
0:2:3.621,225.569,28.7236,0,0.000885,0,0
0:2:5.031,227.74,28.9993,0,0.000885,0,0
0:2:6.422,230.026,29.2889,0,0.000885,0,0
0:2:7.834,233.429,29.7233,0,0.000885,0,0
0:2:9.231,236.009,30.0474,0,0.000885,0,0
0:2:10.630,238.238,30.33,0,0.000885,0,0
0:2:12.025,242.05,30.8196,0,0.000885,0,0
0:2:13.431,244.043,31.0747,0,0.000885,0,0
0:2:14.817,247.094,31.4608,0,0.000885,0,0
0:2:16.219,249.674,31.7917,0,0.000885,0,0
0:2:17.611,252.49,32.1503,0,0.000885,0,0
0:2:19.014,255.248,32.5019,0,0.000885,0,0
0:2:20.413,258.295,32.888,0,0.000885,0,0
0:2:21.818,260.234,33.1362,0,0.000885,0,0
0:2:23.223,263.517,33.5499,0,0.000885,0,0
0:2:24.611,266.213,33.8946,0,0.000885,0,0
0:2:26.003,268.971,34.2463,0,0.000885,0,0
0:2:27.397,271.786,34.6048,0,0.000885,0,0
0:2:28.786,274.66,34.9702,0,0.000885,0,0
0:2:30.167,277.182,35.2943,0,0.000885,0,0
0:2:31.550,279.468,35.5838,0,0.000885,0,0
0:2:32.946,282.404,35.9562,0,0.000885,0,0
0:2:34.334,285.509,36.3492,0,0.000885,0,0
0:2:35.725,287.858,36.6525,0,0.000885,0,0
0:2:37.127,290.731,37.018,0,0.000885,0,0
0:2:38.527,293.547,37.3765,0,0.000885,0,0
0:2:39.920,296.594,37.7626,0,0.000885,0,0
0:2:41.314,299.352,38.1142,0,0.000885,0,0
0:2:42.721,301.407,38.3762,0,0.000885,0,0
0:2:44.107,304.863,38.8175,0,0.000885,0,0
0:2:45.491,307.328,39.1277,0,0.000885,0,0
0:2:46.873,309.676,39.4311,0,0.000885,0,0
0:2:48.276,312.372,39.7759,0,0.000885,0,0
0:2:49.658,314.836,40.0861,0,0.000885,0,0
0:2:51.044,317.825,40.4653,0,0.000885,0,0
0:2:52.430,320.468,40.8032,0,0.000885,0,0
0:2:53.837,323.515,41.1893,0,0.000885,0,0
0:2:55.231,326.095,41.5202,0,0.000885,0,0
0:2:56.635,329.262,41.9201,0,0.000885,0,0
0:2:58.040,331.784,42.2442,0,0.000885,0,0
0:2:59.432,334.426,42.582,0,0.000885,0,0
0:3:0.815,336.655,42.8647,0,0.000885,0,0
0:3:2.206,340.76,43.3887,0,0.000885,0,0
0:3:3.601,342.695,43.63,0,0.000885,0,0
0:3:4.985,345.511,43.9886,0,0.000885,0,0
0:3:6.368,348.443,44.3678,0,0.000885,0,0
0:3:7.765,351.374,44.7401,0,0.000885,0,0
0:3:9.157,353.251,44.9745,0,0.000885,0,0
0:3:10.541,356.009,45.3261,0,0.000885,0,0
0:3:11.930,359.585,45.7812,0,0.000885,0,0
0:3:13.328,361.814,46.0708,0,0.000885,0,0
0:3:14.743,364.163,46.3672,0,0.000885,0,0
0:3:16.133,366.978,46.7258,0,0.000885,0,0
0:3:17.540,369.732,47.0774,0,0.000885,0,0
0:3:18.930,372.663,47.4497,0,0.000885,0,0
0:3:20.326,375.772,47.8427,0,0.000885,0,0
0:3:21.726,378.588,48.2012,0,0.000885,0,0
0:3:23.129,380.581,48.4564,0,0.000885,0,0
0:3:24.545,383.868,48.8769,0,0.000885,0,0
0:3:25.928,386.39,49.1941,0,0.000885,0,0
0:3:27.331,389.264,49.5595,0,0.000885,0,0
0:3:28.730,392.022,49.9111,0,0.000885,0,0
0:3:30.132,394.895,50.2766,0,0.000885,0,0
0:3:31.515,396.71,50.511,0,0.000885,0,0
0:3:32.916,400.113,50.9454,0,0.000885,0,0
0:3:34.304,403.28,51.3453,0,0.000885,0,0
0:3:35.687,405.215,51.5935,0,0.000885,0,0
0:3:37.079,408.618,52.0278,0,0.000885,0,0
0:3:38.477,411.025,52.3312,0,0.000885,0,0
0:3:39.858,413.662,52.6691,0,0.000885,0,0
0:3:41.245,416.714,53.0552,0,0.000885,0,0
0:3:42.657,419.058,53.3585,0,0.000885,0,0
0:3:44.043,422.047,53.7377,0,0.000885,0,0
0:3:45.436,424.747,54.0825,0,0.000885,0,0
0:3:46.820,427.092,54.379,0,0.000885,0,0
0:3:48.226,430.846,54.8547,0,0.000885,0,0
0:3:49.621,432.839,55.1098,0,0.000885,0,0
0:3:51.025,436.068,55.5235,0,0.000885,0,0
0:3:52.424,438.47,55.8268,0,0.000885,0,0
0:3:53.830,441.112,56.1647,0,0.000885,0,0
0:3:55.218,443.986,56.5301,0,0.000885,0,0
0:3:56.601,446.739,56.8817,0,0.000885,0,0
0:3:58.007,449.849,57.2747,0,0.000885,0,0
0:3:59.392,452.019,57.5505,0,0.000885,0,0
0:4:0.776,454.484,57.8677,0,0.000885,0,0
0:4:2.166,457.651,58.2676,0,0.000885,0,0
0:4:3.563,460.289,58.6054,0,0.000885,0,0
0:4:4.952,462.695,58.9088,0,0.000885,0,0
0:4:6.334,466.036,59.3363,0,0.000885,0,0
0:4:7.738,468.558,59.6603,0,0.000885,0,0
0:4:9.133,471.374,60.0189,0,0.000885,0,0
0:4:10.527,473.722,60.3153,0,0.000885,0,0
0:4:11.942,477.063,60.7428,0,0.000885,0,0
0:4:13.338,479.643,61.0669,0,0.000885,0,0
0:4:14.740,482.459,61.4254,0,0.000885,0,0
0:4:16.145,484.629,61.7081,0,0.000885,0,0
0:4:17.549,488.326,62.1769,0,0.000885,0,0
0:4:18.946,490.319,62.432,0,0.000885,0,0
0:4:20.335,493.486,62.8319,0,0.000885,0,0
0:4:21.733,496.123,63.1698,0,0.000885,0,0
0:4:23.136,498.703,63.4938,0,0.000885,0,0
0:4:24.521,501.226,63.8179,0,0.000885,0,0
0:4:25.902,503.868,64.1557,0,0.000885,0,0
0:4:27.299,506.857,64.5349,0,0.000885,0,0
0:4:28.697,510.024,64.9417,0,0.000885,0,0
0:4:30.077,512.311,65.2313,0,0.000885,0,0
0:4:31.467,515.536,65.6381,0,0.000885,0,0
0:4:32.873,518.351,65.9966,0,0.000885,0,0
0:4:34.258,520.406,66.2586,0,0.000885,0,0
0:4:35.638,523.458,66.6516,0,0.000885,0,0
0:4:37.038,526.683,67.0584,0,0.000885,0,0
0:4:38.438,528.382,67.279,0,0.000885,0,0
0:4:39.832,531.313,67.6514,0,0.000885,0,0
0:4:41.223,534.187,68.0168,0,0.000885,0,0
0:4:42.626,537.06,68.3822,0,0.000885,0,0
0:4:44.013,539.409,68.6787,0,0.000885,0,0
0:4:45.392,542.283,69.0441,0,0.000885,0,0
0:4:46.781,545.334,69.4371,0,0.000885,0,0
0:4:48.186,547.856,69.7543,0,0.000885,0,0
0:4:49.568,550.903,70.1404,0,0.000885,0,0
0:4:50.950,553.541,70.4782,0,0.000885,0,0
0:4:52.356,556.063,70.8023,0,0.000885,0,0
0:4:53.742,558.879,71.1608,0,0.000885,0,0
0:4:55.141,561.521,71.4917,0,0.000885,0,0
0:4:56.541,564.51,71.8778,0,0.000885,0,0
0:4:57.947,567.326,72.2364,0,0.000885,0,0
0:4:59.348,569.67,72.5328,0,0.000885,0,0
0:5:0.747,572.78,72.9258,0,0.000885,0,0
0:5:2.156,575.653,73.2913,0,0.000885,0,0
0:5:3.553,578.411,73.6429,0,0.000885,0,0
0:5:4.950,581.111,73.9876,0,0.000885,0,0
0:5:6.337,583.865,74.3393,0,0.000885,0,0
0:5:7.743,586.565,74.684,0,0.000885,0,0
0:5:9.144,588.851,74.9736,0,0.000885,0,0
0:5:10.528,591.667,75.3321,0,0.000885,0,0
0:5:11.944,594.954,75.7527,0,0.000885,0,0
0:5:13.344,597.418,76.063,0,0.000885,0,0
0:5:14.741,600.354,76.4422,0,0.000885,0,0
0:5:16.141,602.876,76.7593,0,0.000885,0,0
0:5:17.555,605.812,77.1316,0,0.000885,0,0
0:5:18.946,608.103,77.4281,0,0.000885,0,0
0:5:20.332,610.038,77.6694,0,0.000885,0,0
0:5:21.747,613.152,78.0693,0,0.000885,0,0
0:5:23.158,603.112,76.7938,0,0.000885,0,0
0:5:24.536,514.717,65.5347,0,0.000885,0,0
0:5:25.923,513.836,65.4244,0,0.000885,0,0
0:5:26.253,433.074,55.1443,0,0.000885,0,0

File: DataFile2021-06-08_040109.csv
Test ID:,Date Tested:,Time:,Test Type:,Diameter Avg. (mm):,Cyl. Corr. Factor:,Height (mm):,Age (days):,Weight (kN):,Break Type:,Ramp Rate (MPa/s):,Load at Break (kN):,Stress at Break (MPa):
12,6/8/2021,04:01,Cylinder,100,1,200,0,3.6,3,0.25,925.72,117.87
Sample Time,Load (kN),Stress (MPa),Long. Strain,Trans. Strain,Chan1 Deflection (mm),Chan2 Deflection (mm)
0:0:13.167,5.57362,0.71016,0,0.000885,0,0
0:0:15.153,11.4942,1.46169,0,0.000885,0,0
0:0:17.144,11.4942,1.46169,0,0.000885,0,0
0:0:19.162,16.4807,2.09601,0,0.000885,0,0
0:0:21.167,21.2892,2.70964,0,0.000885,0,0
0:0:23.156,24.2206,3.08196,0,0.000885,0,0
0:0:25.168,28.7978,3.66801,0,0.000885,0,0
0:0:27.160,33.1393,4.21959,0,0.000885,0,0
0:0:29.160,36.5377,4.65396,0,0.000885,0,0
0:0:31.164,40.5277,5.15728,0,0.000885,0,0
0:0:33.155,45.0427,5.73644,0,0.000885,0,0
0:0:35.165,48.5612,6.1846,0,0.000885,0,0
0:0:37.154,51.7862,6.59139,0,0.000885,0,0
0:0:39.171,55.6606,7.08781,0,0.000885,0,0
0:0:41.170,60.2334,7.66697,0,0.000885,0,0
0:0:43.161,64.2234,8.17718,0,0.000885,0,0
0:0:45.176,67.9777,8.65292,0,0.000885,0,0
0:0:47.165,71.7898,9.14245,0,0.000885,0,0
0:0:49.164,76.069,9.68713,0,0.000885,0,0
0:0:51.170,80.1169,10.1973,0,0.000885,0,0
0:0:53.159,84.3961,10.7489,0,0.000885,0,0
0:0:55.173,87.9191,11.1971,0,0.000885,0,0
0:0:57.160,91.669,11.6728,0,0.000885,0,0
0:0:59.165,95.7747,12.1968,0,0.000885,0,0
0:1:1.165,99.1775,12.6243,0,0.000885,0,0
0:1:3.155,103.341,13.1552,0,0.000885,0,0
0:1:5.166,107.211,13.6516,0,0.000885,0,0
0:1:7.155,110.908,14.1205,0,0.000885,0,0
0:1:9.159,115.249,14.672,0,0.000885,0,0
0:1:11.157,119.003,15.1547,0,0.000885,0,0
0:1:13.154,122.931,15.6511,0,0.000885,0,0
0:1:15.169,127.095,16.182,0,0.000885,0,0
0:1:17.157,131.258,16.7129,0,0.000885,0,0
0:1:19.172,134.777,17.1611,0,0.000885,0,0
0:1:21.168,138.945,17.6919,0,0.000885,0,0
0:1:23.156,142.579,18.1539,0,0.000885,0,0
0:1:25.168,146.862,18.6986,0,0.000885,0,0
0:1:27.158,150.612,19.1743,0,0.000885,0,0
0:1:29.170,154.429,19.6638,0,0.000885,0,0
0:1:31.173,158.708,20.2085,0,0.000885,0,0
0:1:33.163,161.875,20.6084,0,0.000885,0,0
0:1:35.172,166.684,21.2221,0,0.000885,0,0
0:1:37.160,169.971,21.6426,0,0.000885,0,0
0:1:39.166,173.783,22.1253,0,0.000885,0,0
0:1:41.169,178.182,22.6838,0,0.000885,0,0
0:1:43.166,181.701,23.1319,0,0.000885,0,0
0:1:45.177,186.038,23.6904,0,0.000885,0,0
0:1:47.166,189.792,24.1661,0,0.000885,0,0
0:1:49.169,193.662,24.6557,0,0.000885,0,0
0:1:51.164,197.83,25.1865,0,0.000885,0,0
0:1:53.161,201.58,25.6692,0,0.000885,0,0
0:1:55.166,205.686,26.1863,0,0.000885,0,0
0:1:57.161,210.321,26.7792,0,0.000885,0,0
0:1:59.163,213.546,27.1929,0,0.000885,0,0
0:2:1.148,217.184,27.6549,0,0.000885,0,0
0:2:3.162,221.29,28.172,0,0.000885,0,0
0:2:5.163,225.04,28.6546,0,0.000885,0,0
0:2:7.146,229.733,29.2476,0,0.000885,0,0
0:2:9.142,232.606,29.6199,0,0.000885,0,0
0:2:11.133,237.593,30.2542,0,0.000885,0,0
0:2:13.104,240.702,30.6472,0,0.000885,0,0
0:2:15.102,244.688,31.1574,0,0.000885,0,0
0:2:17.076,248.736,31.6676,0,0.000885,0,0
0:2:19.067,252.784,32.1847,0,0.000885,0,0
0:2:21.061,256.302,32.6329,0,0.000885,0,0
0:2:23.044,260.172,33.1293,0,0.000885,0,0
0:2:25.045,263.984,33.6119,0,0.000885,0,0
0:2:27.055,267.738,34.0877,0,0.000885,0,0
0:2:29.048,272.547,34.7013,0,0.000885,0,0
0:2:31.047,275.776,35.115,0,0.000885,0,0
0:2:33.048,279.526,35.5907,0,0.000885,0,0
0:2:35.049,283.868,36.1423,0,0.000885,0,0
0:2:37.052,287.973,36.6663,0,0.000885,0,0
0:2:39.050,291.728,37.1421,0,0.000885,0,0
0:2:41.049,295.188,37.5833,0,0.000885,0,0
0:2:43.043,299.352,38.1142,0,0.000885,0,0
0:2:45.041,303.693,38.6658,0,0.000885,0,0
0:2:47.016,307.27,39.1209,0,0.000885,0,0
0:2:49.005,310.966,39.5966,0,0.000885,0,0
0:2:50.988,315.481,40.1689,0,0.000885,0,0
0:2:52.971,318.413,40.5412,0,0.000885,0,0
0:2:54.970,322.638,41.079,0,0.000885,0,0
0:2:56.962,326.566,41.5823,0,0.000885,0,0
0:2:58.965,330.494,42.0787,0,0.000885,0,0
0:3:0.970,334.662,42.6096,0,0.000885,0,0
0:3:2.967,338.883,43.1474,0,0.000885,0,0
0:3:4.962,342.638,43.6231,0,0.000885,0,0
0:3:6.966,346.508,44.1196,0,0.000885,0,0
0:3:8.970,350.849,44.6711,0,0.000885,0,0
0:3:10.969,354.132,45.0917,0,0.000885,0,0
0:3:12.959,358.18,45.6019,0,0.000885,0,0
0:3:14.957,361.64,46.0432,0,0.000885,0,0
0:3:16.973,365.92,46.5879,0,0.000885,0,0
0:3:18.974,370.025,47.1119,0,0.000885,0,0
0:3:20.958,374.073,47.629,0,0.000885,0,0
0:3:22.953,377.24,48.0289,0,0.000885,0,0
0:3:24.962,382.285,48.677,0,0.000885,0,0
0:3:26.964,385.51,49.0838,0,0.000885,0,0
0:3:28.957,389.206,49.5526,0,0.000885,0,0
0:3:30.955,393.134,50.0559,0,0.000885,0,0
0:3:32.965,398.12,50.6903,0,0.000885,0,0
0:3:34.975,400.994,51.0557,0,0.000885,0,0
0:3:36.958,404.984,51.5659,0,0.000885,0,0
0:3:38.963,409.027,52.0761,0,0.000885,0,0
0:3:40.971,413.311,52.6277,0,0.000885,0,0
0:3:42.960,417.417,53.1448,0,0.000885,0,0
0:3:44.956,420.584,53.5516,0,0.000885,0,0
0:3:46.928,424.569,54.0549,0,0.000885,0,0
0:3:48.921,429.027,54.6272,0,0.000885,0,0
0:3:50.901,432.607,55.0822,0,0.000885,0,0
0:3:52.875,436.477,55.5717,0,0.000885,0,0
0:3:54.874,440.525,56.0889,0,0.000885,0,0
0:3:56.865,444.453,56.5922,0,0.000885,0,0
0:3:58.867,448.385,57.0886,0,0.000885,0,0
0:4:0.865,451.841,57.5299,0,0.000885,0,0
0:4:2.880,456.183,58.0814,0,0.000885,0,0
0:4:4.878,460.231,58.5985,0,0.000885,0,0
0:4:6.859,464.279,59.1156,0,0.000885,0,0
0:4:8.853,467.855,59.5707,0,0.000885,0,0
0:4:10.858,471.845,60.074,0,0.000885,0,0
0:4:12.856,475.889,60.5911,0,0.000885,0,0
0:4:14.858,479.763,61.0875,0,0.000885,0,0
0:4:16.863,483.219,61.5288,0,0.000885,0,0
0:4:18.867,487.267,62.039,0,0.000885,0,0
0:4:20.877,491.373,62.563,0,0.000885,0,0
0:4:22.860,495.888,63.1353,0,0.000885,0,0
0:4:24.855,499.526,63.6041,0,0.000885,0,0
0:4:26.867,503.281,64.0799,0,0.000885,0,0
0:4:28.868,507.151,64.5694,0,0.000885,0,0
0:4:30.871,511.141,65.0796,0,0.000885,0,0
0:4:32.881,515.011,65.576,0,0.000885,0,0
0:4:34.880,518.996,66.0794,0,0.000885,0,0
0:4:36.876,522.751,66.562,0,0.000885,0,0
0:4:38.867,526.563,67.0446,0,0.000885,0,0
0:4:40.870,531.198,67.6376,0,0.000885,0,0
0:4:42.871,534.894,68.1064,0,0.000885,0,0
0:4:44.870,538.822,68.6028,0,0.000885,0,0
0:4:46.876,542.518,69.0786,0,0.000885,0,0
0:4:48.886,546.331,69.5612,0,0.000885,0,0
0:4:50.871,550.258,70.0645,0,0.000885,0,0
0:4:52.867,554.248,70.5678,0,0.000885,0,0
0:4:54.878,558.528,71.1125,0,0.000885,0,0
0:4:56.871,562.46,71.6158,0,0.000885,0,0
0:4:58.862,566.152,72.0847,0,0.000885,0,0
0:5:0.885,570.258,72.6087,0,0.000885,0,0
0:5:2.858,573.425,73.0086,0,0.000885,0,0
0:5:4.860,577.415,73.5188,0,0.000885,0,0
0:5:6.837,582.281,74.1393,0,0.000885,0,0
0:5:8.825,585.568,74.5599,0,0.000885,0,0
0:5:10.816,589.203,75.0219,0,0.000885,0,0
0:5:12.797,594.016,75.6355,0,0.000885,0,0
0:5:14.804,597.361,76.0561,0,0.000885,0,0
0:5:16.788,600.826,76.4973,0,0.000885,0,0
0:5:18.791,605.403,77.0834,0,0.000885,0,0
0:5:20.783,609.571,77.6143,0,0.000885,0,0
0:5:22.786,612.738,78.0142,0,0.000885,0,0
0:5:24.795,616.848,78.5382,0,0.000885,0,0
0:5:26.783,621.074,79.076,0,0.000885,0,0
0:5:28.783,624.775,79.5517,0,0.000885,0,0
0:5:30.781,628.707,80.0481,0,0.000885,0,0
0:5:32.784,632.582,80.5446,0,0.000885,0,0
0:5:34.791,636.572,81.0479,0,0.000885,0,0
0:5:36.774,640.504,81.5512,0,0.000885,0,0
0:5:38.789,644.672,82.0821,0,0.000885,0,0
0:5:40.790,648.546,82.5785,0,0.000885,0,0
0:5:42.782,652.069,83.0267,0,0.000885,0,0
0:5:44.792,655.944,83.5162,0,0.000885,0,0
0:5:46.774,660.757,84.1298,0,0.000885,0,0
0:5:48.788,664.395,84.5918,0,0.000885,0,0
0:5:50.791,668.092,85.0675,0,0.000885,0,0
0:5:52.787,672.202,85.5846,0,0.000885,0,0
0:5:54.798,675.725,86.0328,0,0.000885,0,0
0:5:56.784,680.066,86.5913,0,0.000885,0,0
0:5:58.775,683.825,87.067,0,0.000885,0,0
0:6:0.774,687.815,87.5772,0,0.000885,0,0
0:6:2.758,691.925,88.1012,0,0.000885,0,0
0:6:4.768,695.328,88.5287,0,0.000885,0,0
0:6:6.762,699.616,89.0803,0,0.000885,0,0
0:6:8.794,703.491,89.5698,0,0.000885,0,0
0:6:10.792,707.539,90.0869,0,0.000885,0,0
0:6:12.772,711.355,90.5695,0,0.000885,0,0
0:6:14.800,714.878,91.0177,0,0.000885,0,0
0:6:16.783,719.513,91.6106,0,0.000885,0,0
0:6:18.774,723.094,92.0657,0,0.000885,0,0
0:6:20.774,727.204,92.5897,0,0.000885,0,0
0:6:22.768,730.785,93.0447,0,0.000885,0,0
0:6:24.775,734.891,93.5688,0,0.000885,0,0
0:6:26.760,739.121,94.1065,0,0.000885,0,0
0:6:28.760,742.288,94.5133,0,0.000885,0,0
0:6:30.759,746.807,95.0856,0,0.000885,0,0
0:6:32.745,750.86,95.6027,0,0.000885,0,0
0:6:34.756,754.441,96.0578,0,0.000885,0,0
0:6:36.743,758.253,96.5473,0,0.000885,0,0
0:6:38.741,764.534,97.3471,0,0.000885,0,0
0:6:40.737,765.65,97.485,0,0.000885,0,0
0:6:42.725,769.818,98.0159,0,0.000885,0,0
0:6:44.736,774.338,98.595,0,0.000885,0,0
0:6:46.722,777.918,99.0501,0,0.000885,0,0
0:6:48.716,781.793,99.5396,0,0.000885,0,0
0:6:50.718,785.961,100.071,0,0.000885,0,0
0:6:52.702,789.599,100.532,0,0.000885,0,0
0:6:54.714,793.416,101.022,0,0.000885,0,0
0:6:56.701,797.935,101.594,0,0.000885,0,0
0:6:58.699,801.107,102.001,0,0.000885,0,0
0:7:0.697,805.506,102.56,0,0.000885,0,0
0:7:2.692,809.145,103.021,0,0.000885,0,0
0:7:4.699,813.842,103.621,0,0.000885,0,0
0:7:6.681,816.956,104.021,0,0.000885,0,0
0:7:8.703,821.182,104.559,0,0.000885,0,0
0:7:10.694,825.056,105.049,0,0.000885,0,0
0:7:12.688,829.34,105.593,0,0.000885,0,0
0:7:14.698,832.685,106.021,0,0.000885,0,0
0:7:16.682,836.675,106.531,0,0.000885,0,0
0:7:18.687,840.843,107.062,0,0.000885,0,0
0:7:20.688,844.192,107.482,0,0.000885,0,0
0:7:22.682,849.005,108.096,0,0.000885,0,0
0:7:24.699,852.23,108.51,0,0.000885,0,0
0:7:26.693,856.576,109.061,0,0.000885,0,0
0:7:28.706,860.686,109.585,0,0.000885,0,0
0:7:30.699,864.325,110.047,0,0.000885,0,0
0:7:32.694,868.257,110.551,0,0.000885,0,0
0:7:34.706,871.838,111.006,0,0.000885,0,0
0:7:36.690,876.122,111.55,0,0.000885,0,0
0:7:38.682,879.996,112.047,0,0.000885,0,0
0:7:40.688,884.458,112.612,0,0.000885,0,0
0:7:42.673,888.096,113.074,0,0.000885,0,0
0:7:44.681,891.562,113.515,0,0.000885,0,0
0:7:46.697,895.729,114.046,0,0.000885,0,0
0:7:48.707,899.484,114.529,0,0.000885,0,0
0:7:50.702,903.945,115.094,0,0.000885,0,0
0:7:52.685,907.704,115.57,0,0.000885,0,0
0:7:54.709,911.872,116.101,0,0.000885,0,0
0:7:56.703,915.333,116.542,0,0.000885,0,0
0:7:58.697,919.149,117.032,0,0.000885,0,0
0:8:0.696,923.139,117.535,0,0.000885,0,0
0:8:2.409,926.311,117.942,0,0.000885,0,0