Folder: Experiment-Files (part 2)

File: DataFile2021-06-06_020640.txt
Test ID:	Date Tested:	Time:	Test Type:	Diameter Avg. (mm):	Cyl. Corr. Factor:	Height (mm):	Age (days):	Weight (kN):	Break Type:	Ramp Rate (MPa/s):	Load at Break (kN):	Stress at Break (MPa):
12	6/6/2021	2:06	Cylinder	150	1	300	0	13.39	Invalid/No Break	0.25	1625.29	91.97
Column1	Sample Time	Load (kN)	Stress (MPa)	Long. Strain	Trans. Strain	Chan1 Deflection (mm)	Chan2 Deflection (mm)
1.00	00:14.1	60.0599	3.39912	0	0.000885	0	0
7.00	00:15.6	67.2126	3.80591	0	0.000885	0	0
3.00	00:17.2	74.8947	4.24028	0	0.000885	0	0
9.00	00:18.8	80.5262	4.55743	0	0.000885	0	0
5.00	00:20.4	88.3862	4.9987	0	0.000885	0	0
1.00	00:22.0	95.6012	5.41238	0	0.000885	0	0
7.00	00:23.6	102.874	5.81918	0	0.000885	0	0
3.00	00:25.3	109.444	6.19149	0	0.000885	0	0
9.00	00:26.8	117.126	6.62586	0	0.000885	0	0
5.00	00:28.4	123.692	6.99818	0	0.000885	0	0
1.00	00:30.0	130.146	7.3636	0	0.000885	0	0
7.00	00:31.6	138.064	7.81176	0	0.000885	0	0
3.00	00:33.2	144.514	8.17718	0	0.000885	0	0
9.00	00:34.8	152.138	8.61155	0	0.000885	0	0
5.00	00:36.5	159.589	9.03213	0	0.000885	0	0
1.00	00:38.0	166.159	9.40445	0	0.000885	0	0
7.00	00:39.6	173.076	9.79745	0	0.000885	0	0
3.00	00:41.3	180.291	10.2042	0	0.000885	0	0
9.00	00:42.9	187.328	10.6041	0	0.000885	0	0
5.00	00:44.4	194.485	11.004	0	0.000885	0	0
1.00	00:46.0	201.758	11.4177	0	0.000885	0	0
7.00	00:47.6	208.386	11.79	0	0.000885	0	0
3.00	00:49.2	215.365	12.1899	0	0.000885	0	0
9.00	00:50.8	222.874	12.6105	0	0.000885	0	0
5.00	00:52.4	229.675	12.9966	0	0.000885	0	0
1.00	00:54.0	236.419	13.3758	0	0.000885	0	0
7.00	00:55.6	243.576	13.7826	0	0.000885	0	0
3.00	00:57.2	250.613	14.1825	0	0.000885	0	0
9.00	00:58.8	258.001	14.6031	0	0.000885	0	0
5.00	01:00.4	265.158	15.003	0	0.000885	0	0
1.00	01:02.0	271.671	15.3753	0	0.000885	0	0
7.00	01:03.6	278.708	15.7683	0	0.000885	0	0
3.00	01:05.2	285.803	16.1751	0	0.000885	0	0
9.00	01:06.8	293.898	16.6302	0	0.000885	0	0
5.00	01:08.4	300.758	17.0163	0	0.000885	0	0
1.00	01:10.0	307.563	17.4024	0	0.000885	0	0
7.00	01:11.6	314.427	17.7954	0	0.000885	0	0
3.00	01:13.2	321.113	18.1746	0	0.000885	0	0
9.00	01:14.8	328.034	18.5607	0	0.000885	0	0
5.00	01:16.4	335.187	18.9675	0	0.000885	0	0
1.00	01:18.0	342.695	19.395	0	0.000885	0	0
7.00	01:19.6	348.972	19.7466	0	0.000885	0	0
3.00	01:21.2	355.893	20.1396	0	0.000885	0	0
9.00	01:22.7	364.22	20.6084	0	0.000885	0	0
5.00	01:24.3	370.377	20.9601	0	0.000885	0	0
1.00	01:25.9	376.947	21.3324	0	0.000885	0	0
7.00	01:27.5	384.513	21.7599	0	0.000885	0	0
3.00	01:29.1	391.608	22.1597	0	0.000885	0	0
9.00	01:30.7	398.356	22.539	0	0.000885	0	0
5.00	01:32.3	406.447	23.0009	0	0.000885	0	0
1.00	01:33.9	412.43	23.3388	0	0.000885	0	0
7.00	01:35.5	420.112	23.7731	0	0.000885	0	0
3.00	01:37.1	427.034	24.1661	0	0.000885	0	0
9.00	01:38.7	434.364	24.5798	0	0.000885	0	0
5.00	01:40.3	440.525	24.9314	0	0.000885	0	0
1.00	01:41.9	448.029	25.352	0	0.000885	0	0
7.00	01:43.5	454.484	25.7174	0	0.000885	0	0
3.00	01:45.0	462.224	26.1587	0	0.000885	0	0
9.00	01:46.6	469.261	26.5517	0	0.000885	0	0
5.00	01:48.2	475.595	26.9102	0	0.000885	0	0
1.00	01:49.8	482.516	27.3032	0	0.000885	0	0
7.00	01:51.4	490.434	27.7514	0	0.000885	0	0
3.00	01:53.0	497.707	28.1651	0	0.000885	0	0
9.00	01:54.6	503.69	28.5029	0	0.000885	0	0
5.00	01:56.2	511.314	28.9373	0	0.000885	0	0
1.00	01:57.8	519.174	29.3786	0	0.000885	0	0
7.00	01:59.4	525.918	29.7578	0	0.000885	0	0
3.00	02:01.0	532.666	30.1439	0	0.000885	0	0
9.00	02:02.6	539.583	30.5369	0	0.000885	0	0
5.00	02:04.2	546.74	30.9368	0	0.000885	0	0
1.00	02:05.8	553.719	31.3367	0	0.000885	0	0
7.00	02:07.4	560.463	31.7159	0	0.000885	0	0
3.00	02:08.9	566.681	32.0675	0	0.000885	0	0
9.00	02:10.5	574.248	32.495	0	0.000885	0	0
5.00	02:12.1	582.223	32.95	0	0.000885	0	0
1.00	02:13.7	589.203	33.343	0	0.000885	0	0
7.00	02:15.3	595.074	33.674	0	0.000885	0	0
3.00	02:16.9	602.525	34.0946	0	0.000885	0	0
9.00	02:18.5	609.865	34.5083	0	0.000885	0	0
5.00	02:20.1	617.435	34.9426	0	0.000885	0	0
1.00	02:21.7	624.361	35.3287	0	0.000885	0	0
7.00	02:23.3	630.704	35.6873	0	0.000885	0	0
3.00	02:24.9	637.688	36.0872	0	0.000885	0	0
9.00	02:26.5	645.673	36.5353	0	0.000885	0	0
5.00	02:28.1	652.421	36.9214	0	0.000885	0	0
1.00	02:29.7	660.112	37.3558	0	0.000885	0	0
7.00	02:31.3	666.215	37.7005	0	0.000885	0	0
3.00	02:32.9	673.14	38.0935	0	0.000885	0	0
9.00	02:34.5	680.654	38.5141	0	0.000885	0	0
5.00	02:36.1	687.464	38.9002	0	0.000885	0	0
1.00	02:37.7	694.158	39.2794	0	0.000885	0	0
7.00	02:39.3	701.609	39.7	0	0.000885	0	0
3.00	02:40.9	709.887	40.1689	0	0.000885	0	0
9.00	02:42.5	716.168	40.5274	0	0.000885	0	0
5.00	02:44.1	722.627	40.8928	0	0.000885	0	0
1.00	02:45.7	729.904	41.3065	0	0.000885	0	0
7.00	02:47.3	737.244	41.7202	0	0.000885	0	0
3.00	02:48.9	743.876	42.0925	0	0.000885	0	0
9.00	02:50.5	751.038	42.4993	0	0.000885	0	0
5.00	02:52.1	757.728	42.8785	0	0.000885	0	0
1.00	02:53.7	765.183	43.2991	0	0.000885	0	0
7.00	02:55.3	772.518	43.7128	0	0.000885	0	0
3.00	02:56.9	778.977	44.0782	0	0.000885	0	0
9.00	02:58.5	786.254	44.4919	0	0.000885	0	0
5.00	03:00.1	793.71	44.9124	0	0.000885	0	0
1.00	03:01.7	800.929	45.3261	0	0.000885	0	0
7.00	03:03.2	807.446	45.6916	0	0.000885	0	0
3.00	03:04.8	814.785	46.1052	0	0.000885	0	0
9.00	03:06.4	821.182	46.4707	0	0.000885	0	0
5.00	03:08.0	828.637	46.8912	0	0.000885	0	0
1.00	03:09.6	835.914	47.3049	0	0.000885	0	0
7.00	03:11.2	843.254	47.7186	0	0.000885	0	0
3.00	03:12.8	850.238	48.1116	0	0.000885	0	0
9.00	03:14.4	857.163	48.5046	0	0.000885	0	0
5.00	03:16.0	863.386	48.8563	0	0.000885	0	0
1.00	03:17.6	871.251	49.3044	0	0.000885	0	0
7.00	03:19.2	878.297	49.7043	0	0.000885	0	0
3.00	03:20.8	885.516	50.1111	0	0.000885	0	0
9.00	03:22.4	891.855	50.4696	0	0.000885	0	0
5.00	03:24.0	899.426	50.8971	0	0.000885	0	0
1.00	03:25.6	906.766	51.3108	0	0.000885	0	0
7.00	03:27.2	913.513	51.6969	0	0.000885	0	0
3.00	03:28.8	920.266	52.0761	0	0.000885	0	0
9.00	03:30.4	927.307	52.476	0	0.000885	0	0
5.00	03:32.0	935.176	52.9173	0	0.000885	0	0
1.00	03:33.6	940.928	53.2482	0	0.000885	0	0
7.00	03:35.2	948.677	53.6826	0	0.000885	0	0
3.00	03:36.8	955.954	54.0963	0	0.000885	0	0
9.00	03:38.4	963.058	54.4962	0	0.000885	0	0
5.00	03:40.0	970.629	54.9236	0	0.000885	0	0
1.00	03:41.6	976.91	55.2822	0	0.000885	0	0
7.00	03:43.2	984.249	55.6958	0	0.000885	0	0
3.00	03:44.8	991.526	56.1095	0	0.000885	0	0
9.00	03:46.4	998.159	56.4819	0	0.000885	0	0
5.00	03:48.0	1005.38	56.8955	0	0.000885	0	0
1.00	03:49.6	1012.78	57.3092	0	0.000885	0	0
7.00	03:51.2	1019.7	57.7022	0	0.000885	0	0
3.00	03:52.8	1026.33	58.0814	0	0.000885	0	0
9.00	03:54.4	1033.85	58.502	0	0.000885	0	0
5.00	03:56.0	1040.54	58.8812	0	0.000885	0	0
1.00	03:57.6	1048.05	59.3087	0	0.000885	0	0
7.00	03:59.2	1055.57	59.7362	0	0.000885	0	0
3.00	04:00.8	1061.67	60.0809	0	0.000885	0	0
9.00	04:02.4	1068.83	60.4808	0	0.000885	0	0
5.00	04:04.0	1076.17	60.9014	0	0.000885	0	0
1.00	04:05.6	1082.51	61.2599	0	0.000885	0	0
7.00	04:07.2	1090.79	61.7288	0	0.000885	0	0
3.00	04:08.8	1097.77	62.1218	0	0.000885	0	0
9.00	04:10.4	1104.4	62.4941	0	0.000885	0	0
5.00	04:12.0	1111.09	62.8733	0	0.000885	0	0
1.00	04:13.6	1119.55	63.3559	0	0.000885	0	0
7.00	04:15.2	1126.06	63.7213	0	0.000885	0	0
3.00	04:16.8	1132.87	64.1075	0	0.000885	0	0
9.00	04:18.4	1140.03	64.5142	0	0.000885	0	0
5.00	04:20.0	1146.72	64.8935	0	0.000885	0	0
1.00	04:21.6	1153.66	65.2865	0	0.000885	0	0
7.00	04:23.2	1160.7	65.6795	0	0.000885	0	0
3.00	04:24.8	1168.33	66.1138	0	0.000885	0	0
9.00	04:26.4	1175.61	66.5275	0	0.000885	0	0
5.00	04:28.0	1181.3	66.8447	0	0.000885	0	0
1.00	04:29.6	1189.29	67.2997	0	0.000885	0	0
7.00	04:31.2	1196.15	67.6858	0	0.000885	0	0
3.00	04:32.8	1203.37	68.0995	0	0.000885	0	0
9.00	04:34.4	1210.65	68.5063	0	0.000885	0	0
5.00	04:36.0	1218.4	68.9476	0	0.000885	0	0
1.00	04:37.6	1223.91	69.2578	0	0.000885	0	0
7.00	04:39.2	1230.96	69.6577	0	0.000885	0	0
3.00	04:40.8	1238.71	70.099	0	0.000885	0	0
9.00	04:42.4	1245.81	70.4989	0	0.000885	0	0
5.00	04:44.0	1252.74	70.8919	0	0.000885	0	0
1.00	04:45.6	1260.31	71.3194	0	0.000885	0	0
7.00	04:47.2	1266.53	71.671	0	0.000885	0	0
3.00	04:48.8	1274.1	72.0985	0	0.000885	0	0
9.00	04:50.4	1280.62	72.4708	0	0.000885	0	0
5.00	04:52.0	1288.08	72.8914	0	0.000885	0	0
1.00	04:53.6	1295.65	73.3188	0	0.000885	0	0
7.00	04:55.2	1303.16	73.7463	0	0.000885	0	0
3.00	04:56.8	1309.5	74.1049	0	0.000885	0	0
9.00	04:58.4	1316.72	74.5116	0	0.000885	0	0
5.00	05:00.0	1323.59	74.8977	0	0.000885	0	0
1.00	05:01.6	1330.1	75.2701	0	0.000885	0	0
7.00	05:03.2	1338.91	75.7665	0	0.000885	0	0
3.00	05:04.8	1343.66	76.0354	0	0.000885	0	0
9.00	05:06.4	1352.17	76.518	0	0.000885	0	0
5.00	05:08.0	1358.75	76.8903	0	0.000885	0	0
1.00	05:09.6	1365.97	77.2971	0	0.000885	0	0
7.00	05:11.2	1373.42	77.7177	0	0.000885	0	0
3.00	05:12.8	1380.59	78.1245	0	0.000885	0	0
9.00	05:14.4	1387.22	78.5037	0	0.000885	0	0
5.00	05:16.1	1395.02	78.945	0	0.000885	0	0
1.00	05:17.6	1400.6	79.2552	0	0.000885	0	0
7.00	05:19.2	1408.35	79.6965	0	0.000885	0	0
3.00	05:20.8	1415.34	80.0895	0	0.000885	0	0
9.00	05:22.4	1422.44	80.4963	0	0.000885	0	0
5.00	05:24.0	1428.89	80.8617	0	0.000885	0	0
1.00	05:25.6	1436.53	81.2892	0	0.000885	0	0
7.00	05:27.2	1443.75	81.696	0	0.000885	0	0
3.00	05:28.8	1450.67	82.089	0	0.000885	0	0
9.00	05:30.5	1458.13	82.5165	0	0.000885	0	0
5.00	05:32.0	1465	82.9026	0	0.000885	0	0
1.00	05:33.6	1471.98	83.2956	0	0.000885	0	0
7.00	05:35.3	1478.32	83.6541	0	0.000885	0	0
3.00	05:36.8	1485.27	84.0471	0	0.000885	0	0
9.00	05:38.4	1493.33	84.5021	0	0.000885	0	0
5.00	05:40.0	1500.57	84.9158	0	0.000885	0	0
1.00	05:41.6	1507.52	85.3088	0	0.000885	0	0
7.00	05:43.2	1514.47	85.7018	0	0.000885	0	0
3.00	05:44.8	1520.65	86.0535	0	0.000885	0	0
9.00	05:46.4	1528.48	86.4947	0	0.000885	0	0
5.00	05:48.0	1535.31	86.8808	0	0.000885	0	0
1.00	05:49.6	1543.03	87.3152	0	0.000885	0	0
7.00	05:51.3	1549.27	87.6737	0	0.000885	0	0
3.00	05:52.8	1555.1	87.9978	0	0.000885	0	0
9.00	05:54.4	1565.23	88.5769	0	0.000885	0	0
5.00	05:56.1	1571.47	88.9286	0	0.000885	0	0
1.00	05:57.6	1577.3	89.2595	0	0.000885	0	0
7.00	05:59.2	1585.19	89.7008	0	0.000885	0	0
3.00	06:00.9	1590.49	90.0042	0	0.000885	0	0
9.00	06:02.4	1599.26	90.5006	0	0.000885	0	0
5.00	06:04.0	1606.68	90.9212	0	0.000885	0	0
1.00	06:05.7	1612.86	91.2728	0	0.000885	0	0
7.00	06:07.2	1621.05	91.7347	0	0.000885	0	0
3.00	06:08.8	1619.46	91.6451	0	0.000885	0	0
7.00	06:10.2	1576.24	89.1975	0	0.000885	0	0

File: DataFile2021-06-06_021242.csv
Test ID:,Date Tested:,Time:,Test Type:,Diameter Avg. (mm):,Cyl. Corr. Factor:,Height (mm):,Age (days):,Weight (kN):,Break Type:,Ramp Rate (MPa/s):,Load at Break (kN):,Stress at Break (MPa):
12,6/6/2021,02:12,Cylinder,150,1,300,0,13.39,Invalid/No Break,0.25,1252.27,70.86
Sample Time,Load (kN),Stress (MPa),Long. Strain,Trans. Strain,Chan1 Deflection (mm),Chan2 Deflection (mm)
0:0:11.729,60.0599,3.39912,0,0.000885,0,0
0:0:12.926,65.5134,3.70938,0,0.000885,0,0
0:0:14.117,71.2605,4.03343,0,0.000885,0,0
0:0:15.312,76.6562,4.3368,0,0.000885,0,0
0:0:16.508,81.1133,4.59191,0,0.000885,0,0
0:0:17.714,86.9183,4.91596,0,0.000885,0,0
0:0:18.920,92.1405,5.21244,0,0.000885,0,0
0:0:20.116,97.3004,5.50891,0,0.000885,0,0
0:0:21.308,103.986,5.88123,0,0.000885,0,0
0:0:22.511,108.15,6.12254,0,0.000885,0,0
0:0:23.723,114.19,6.46039,0,0.000885,0,0
0:0:24.913,118.238,6.68791,0,0.000885,0,0
0:0:26.111,123.634,6.99818,0,0.000885,0,0
0:0:27.309,129.15,7.30844,0,0.000885,0,0
0:0:28.522,134.545,7.61181,0,0.000885,0,0
0:0:29.718,139.821,7.91518,0,0.000885,0,0
0:0:30.914,145.688,8.24613,0,0.000885,0,0
0:0:32.111,150.087,8.49434,0,0.000885,0,0
0:0:33.325,156.422,8.85287,0,0.000885,0,0
0:0:34.521,161.408,9.13555,0,0.000885,0,0
0:0:35.713,166.097,9.39755,0,0.000885,0,0
0:0:36.910,171.964,9.7285,0,0.000885,0,0
0:0:38.126,177.302,10.0319,0,0.000885,0,0
0:0:39.323,182.168,10.3077,0,0.000885,0,0
0:0:40.520,187.857,10.6317,0,0.000885,0,0
0:0:41.715,193.311,10.942,0,0.000885,0,0
0:0:42.915,198.591,11.2385,0,0.000885,0,0
0:0:44.109,203.457,11.5142,0,0.000885,0,0
0:0:45.296,208.501,11.7969,0,0.000885,0,0
0:0:46.488,214.427,12.1348,0,0.000885,0,0
0:0:47.697,219.764,12.4381,0,0.000885,0,0
0:0:48.897,224.631,12.7139,0,0.000885,0,0
0:0:50.090,229.911,13.0104,0,0.000885,0,0
0:0:51.288,234.897,13.2931,0,0.000885,0,0
0:0:52.494,240.293,13.5965,0,0.000885,0,0
0:0:53.691,245.862,13.9136,0,0.000885,0,0
0:0:54.889,251.084,14.2101,0,0.000885,0,0
0:0:56.084,256.653,14.5204,0,0.000885,0,0
0:0:57.294,262.227,14.8375,0,0.000885,0,0
0:0:58.500,267.329,15.1271,0,0.000885,0,0
0:0:59.697,272.841,15.4374,0,0.000885,0,0
0:1:0.889,277.711,15.7132,0,0.000885,0,0
0:1:2.096,282.462,15.982,0,0.000885,0,0
0:1:3.302,287.444,16.2647,0,0.000885,0,0
0:1:4.489,293.841,16.6302,0,0.000885,0,0
0:1:5.688,298.765,16.9059,0,0.000885,0,0
0:1:6.892,304.805,17.2507,0,0.000885,0,0
0:1:8.098,309.792,17.5334,0,0.000885,0,0
0:1:9.294,315.366,17.8436,0,0.000885,0,0
0:1:10.485,319.703,18.0918,0,0.000885,0,0
0:1:11.694,325.392,18.4159,0,0.000885,0,0
0:1:12.900,330.965,18.7262,0,0.000885,0,0
0:1:14.093,335.774,19.002,0,0.000885,0,0
0:1:15.292,341.699,19.3329,0,0.000885,0,0
0:1:16.485,346.272,19.5949,0,0.000885,0,0
0:1:17.687,352.726,19.9603,0,0.000885,0,0
0:1:18.883,356.77,20.1878,0,0.000885,0,0
0:1:20.096,362.752,20.5257,0,0.000885,0,0
0:1:21.294,367.912,20.8222,0,0.000885,0,0
0:1:22.499,372.957,21.1049,0,0.000885,0,0
0:1:23.693,378.824,21.4358,0,0.000885,0,0
0:1:24.892,383.926,21.7254,0,0.000885,0,0
0:1:26.085,388.792,22.0012,0,0.000885,0,0
0:1:27.300,394.775,22.339,0,0.000885,0,0
0:1:28.504,399.41,22.601,0,0.000885,0,0
0:1:29.698,404.628,22.8975,0,0.000885,0,0
0:1:30.891,409.614,23.1802,0,0.000885,0,0
0:1:32.087,415.655,23.518,0,0.000885,0,0
0:1:33.295,421.465,23.849,0,0.000885,0,0
0:1:34.492,425.922,24.1041,0,0.000885,0,0
0:1:35.687,431.611,24.4212,0,0.000885,0,0
0:1:36.881,436.362,24.6901,0,0.000885,0,0
0:1:38.095,442.051,25.0142,0,0.000885,0,0
0:1:39.300,446.859,25.29,0,0.000885,0,0
0:1:40.494,453.016,25.6347,0,0.000885,0,0
0:1:41.695,457.709,25.9036,0,0.000885,0,0
0:1:42.900,463.22,26.2139,0,0.000885,0,0
0:1:44.094,468.794,26.531,0,0.000885,0,0
0:1:45.294,474.189,26.8344,0,0.000885,0,0
0:1:46.489,478.882,27.0964,0,0.000885,0,0
0:1:47.687,484.923,27.4411,0,0.000885,0,0
0:1:48.893,489.438,27.6962,0,0.000885,0,0
0:1:50.089,495.127,28.0203,0,0.000885,0,0
0:1:51.296,500.523,28.3237,0,0.000885,0,0
0:1:52.487,505.861,28.627,0,0.000885,0,0
0:1:53.689,510.963,28.9166,0,0.000885,0,0
0:1:54.885,517.239,29.2682,0,0.000885,0,0
0:1:56.096,521.287,29.4958,0,0.000885,0,0
0:1:57.303,526.389,29.7854,0,0.000885,0,0
0:1:58.503,532.252,30.1163,0,0.000885,0,0
0:1:59.696,537.648,30.4266,0,0.000885,0,0
0:2:0.895,543.043,30.7299,0,0.000885,0,0
0:2:2.103,548.03,31.0126,0,0.000885,0,0
0:2:3.308,554.191,31.3574,0,0.000885,0,0
0:2:4.496,558.354,31.5987,0,0.000885,0,0
0:2:5.699,564.159,31.9227,0,0.000885,0,0
0:2:6.889,569.025,32.1985,0,0.000885,0,0
0:2:8.098,574.19,32.495,0,0.000885,0,0
0:2:9.300,580.173,32.8328,0,0.000885,0,0
0:2:10.502,585.155,33.1155,0,0.000885,0,0
0:2:11.699,590.786,33.4327,0,0.000885,0,0
0:2:12.901,596.008,33.7292,0,0.000885,0,0
0:2:14.099,601.76,34.0532,0,0.000885,0,0
0:2:15.291,606.284,34.3083,0,0.000885,0,0
0:2:16.491,611.155,34.5841,0,0.000885,0,0
0:2:17.698,617.2,34.9288,0,0.000885,0,0
0:2:18.900,622.248,35.2115,0,0.000885,0,0
0:2:20.098,627.884,35.5287,0,0.000885,0,0
0:2:21.285,632.461,35.7907,0,0.000885,0,0
0:2:22.500,638.627,36.1354,0,0.000885,0,0
0:2:23.706,643.965,36.4388,0,0.000885,0,0
0:2:24.893,648.72,36.7077,0,0.000885,0,0
0:2:26.088,654.591,37.0455,0,0.000885,0,0
0:2:27.304,659.111,37.3006,0,0.000885,0,0
0:2:28.514,665.334,37.6523,0,0.000885,0,0
0:2:29.708,669.795,37.9005,0,0.000885,0,0
0:2:30.899,675.605,38.2314,0,0.000885,0,0
0:2:32.095,680.711,38.521,0,0.000885,0,0
0:2:33.308,686.232,38.8313,0,0.000885,0,0
0:2:34.499,691.338,39.1209,0,0.000885,0,0
0:2:35.698,695.915,39.3829,0,0.000885,0,0
0:2:36.902,702.312,39.7414,0,0.000885,0,0
0:2:38.112,707.187,40.0172,0,0.000885,0,0
0:2:39.305,712.939,40.3412,0,0.000885,0,0
0:2:40.498,718.103,40.6377,0,0.000885,0,0
0:2:41.687,723.388,40.9342,0,0.000885,0,0
0:2:42.893,728.374,41.2169,0,0.000885,0,0
0:2:44.094,732.604,41.4582,0,0.000885,0,0
0:2:45.292,738.414,41.7822,0,0.000885,0,0
0:2:46.492,744.285,42.1201,0,0.000885,0,0
0:2:47.700,750.21,42.451,0,0.000885,0,0
0:2:48.901,755.379,42.7475,0,0.000885,0,0
0:2:50.103,760.308,43.0233,0,0.000885,0,0
0:2:51.305,764.534,43.2646,0,0.000885,0,0
0:2:52.501,770.935,43.6231,0,0.000885,0,0
0:2:53.711,775.921,43.9058,0,0.000885,0,0
0:2:54.903,781.379,44.2161,0,0.000885,0,0
0:2:56.089,786.841,44.5263,0,0.000885,0,0
0:2:57.295,791.89,44.809,0,0.000885,0,0
0:2:58.501,797.464,45.1262,0,0.000885,0,0
0:2:59.703,803.335,45.4571,0,0.000885,0,0
0:3:0.905,807.561,45.6985,0,0.000885,0,0
0:3:2.097,813.077,46.0087,0,0.000885,0,0
0:3:3.309,818.771,46.3328,0,0.000885,0,0
0:3:4.501,823.059,46.5741,0,0.000885,0,0
0:3:5.696,828.988,46.9119,0,0.000885,0,0
0:3:6.907,834.62,47.2291,0,0.000885,0,0
0:3:8.118,840.549,47.5669,0,0.000885,0,0
0:3:9.315,845.304,47.8358,0,0.000885,0,0
0:3:10.507,850.762,48.1461,0,0.000885,0,0
0:3:11.698,854.93,48.3805,0,0.000885,0,0
0:3:12.912,861.211,48.7321,0,0.000885,0,0
0:3:14.113,865.731,48.9873,0,0.000885,0,0
0:3:15.307,871.718,49.332,0,0.000885,0,0
0:3:16.504,877.296,49.6423,0,0.000885,0,0
0:3:17.712,882.696,49.9525,0,0.000885,0,0
0:3:18.911,888.506,50.2766,0,0.000885,0,0
0:3:20.098,891.793,50.4627,0,0.000885,0,0
0:3:21.299,898.194,50.8282,0,0.000885,0,0
0:3:22.505,903.243,51.1108,0,0.000885,0,0
0:3:23.708,908.407,51.4073,0,0.000885,0,0
0:3:24.895,913.923,51.7176,0,0.000885,0,0
0:3:26.088,919.385,52.0278,0,0.000885,0,0
0:3:27.303,924.55,52.3174,0,0.000885,0,0
0:3:28.512,930.007,52.6277,0,0.000885,0,0
0:3:29.709,934.647,52.8897,0,0.000885,0,0
0:3:30.897,940.75,53.2344,0,0.000885,0,0
0:3:32.109,946.034,53.5378,0,0.000885,0,0
0:3:33.322,950.727,53.7998,0,0.000885,0,0
0:3:34.518,956.599,54.1307,0,0.000885,0,0
0:3:35.711,962.293,54.4548,0,0.000885,0,0
0:3:36.905,967.284,54.7375,0,0.000885,0,0
0:3:38.115,972.915,55.0546,0,0.000885,0,0
0:3:39.312,977.377,55.3097,0,0.000885,0,0
0:3:40.501,982.777,55.6131,0,0.000885,0,0
0:3:41.699,988.533,55.9372,0,0.000885,0,0
0:3:42.912,993.871,56.2405,0,0.000885,0,0
0:3:44.108,999.213,56.5439,0,0.000885,0,0
0:3:45.308,1003.73,56.799,0,0.000885,0,0
0:3:46.500,1009.96,57.1506,0,0.000885,0,0
0:3:47.702,1014.65,57.4195,0,0.000885,0,0
0:3:48.906,1019.82,57.7091,0,0.000885,0,0
0:3:50.109,1025.22,58.0125,0,0.000885,0,0
0:3:51.314,1029.97,58.2814,0,0.000885,0,0
0:3:52.520,1035.67,58.6054,0,0.000885,0,0
0:3:53.726,1041.48,58.9364,0,0.000885,0,0
0:3:54.915,1046.11,59.1984,0,0.000885,0,0
0:3:56.109,1051.4,59.4949,0,0.000885,0,0
0:3:57.300,1057.44,59.8396,0,0.000885,0,0
0:3:58.512,1062.02,60.1016,0,0.000885,0,0
0:3:59.707,1067.54,60.4119,0,0.000885,0,0
0:4:0.903,1073,60.7221,0,0.000885,0,0
0:4:2.096,1078.46,61.0255,0,0.000885,0,0
0:4:3.310,1083.8,61.3289,0,0.000885,0,0
0:4:4.501,1089.32,61.646,0,0.000885,0,0
0:4:5.694,1094.01,61.908,0,0.000885,0,0
0:4:6.896,1099.65,62.2252,0,0.000885,0,0
0:4:8.108,1103.88,62.4665,0,0.000885,0,0
0:4:9.300,1110.33,62.8319,0,0.000885,0,0
0:4:10.492,1115.38,63.1146,0,0.000885,0,0
0:4:11.699,1120.78,63.4249,0,0.000885,0,0
0:4:12.910,1125.65,63.7007,0,0.000885,0,0
0:4:14.110,1131.23,64.0178,0,0.000885,0,0
0:4:15.308,1137.45,64.3695,0,0.000885,0,0
0:4:16.500,1141.5,64.597,0,0.000885,0,0
0:4:17.713,1146.14,64.859,0,0.000885,0,0
0:4:18.915,1152.36,65.2106,0,0.000885,0,0
0:4:20.104,1157.7,65.514,0,0.000885,0,0
0:4:21.309,1163.22,65.8242,0,0.000885,0,0
0:4:22.501,1168.45,66.1207,0,0.000885,0,0
0:4:23.713,1174.43,66.4586,0,0.000885,0,0
0:4:24.904,1178.24,66.6723,0,0.000885,0,0
0:4:26.102,1184.65,67.0377,0,0.000885,0,0
0:4:27.303,1189.28,67.2997,0,0.000885,0,0
0:4:28.513,1193.92,67.5617,0,0.000885,0,0
0:4:29.711,1200.49,67.934,0,0.000885,0,0
0:4:30.901,1203.66,68.1133,0,0.000885,0,0
0:4:32.115,1210.65,68.5063,0,0.000885,0,0
0:4:33.326,1215.11,68.7614,0,0.000885,0,0
0:4:34.522,1223.97,69.2647,0,0.000885,0,0
0:4:35.715,1227.5,69.4647,0,0.000885,0,0
0:4:36.901,1231.78,69.706,0,0.000885,0,0
0:4:38.112,1237.06,70.0025,0,0.000885,0,0
0:4:39.311,1242.17,70.2921,0,0.000885,0,0
0:4:40.504,1242.34,70.3058,0,0.000885,0,0
0:4:41.696,1252.33,70.8643,0,0.000885,0,0
0:4:42.895,1030.8,58.3296,0,0.000885,0,0