Folder: Experiment-Files (part 7)

File: DataFile2021-06-06_064912.csv
Test ID:,Date Tested:,Time:,Test Type:,Diameter Avg. (mm):,Cyl. Corr. Factor:,Height (mm):,Age (days):,Weight (kN):,Break Type:,Ramp Rate (MPa/s):,Load at Break (kN):,Stress at Break (MPa):
12,6/6/2021,06:49,Cylinder,150,1,300,0,13.39,3,0.25,1830.03,103.56
Sample Time,Load (kN),Stress (MPa),Long. Strain,Trans. Strain,Chan1 Deflection (mm),Chan2 Deflection (mm)
0:0:15.749,5.21776,0.296475,0,0.000885,0,0
0:0:17.560,12.1392,0.689476,0,0.000885,0,0
0:0:19.360,20.4707,1.15832,0,0.000885,0,0
0:0:21.163,29.6785,1.68232,0,0.000885,0,0
0:0:22.980,37.3606,2.11669,0,0.000885,0,0
0:0:24.771,45.4519,2.57174,0,0.000885,0,0
0:0:26.574,53.3119,3.0199,0,0.000885,0,0
0:0:28.381,60.4691,3.4198,0,0.000885,0,0
0:0:30.172,69.6769,3.9438,0,0.000885,0,0
0:0:31.977,77.359,4.37817,0,0.000885,0,0
0:0:33.780,84.1648,4.76428,0,0.000885,0,0
0:0:35.573,92.9011,5.25381,0,0.000885,0,0
0:0:37.388,100.294,5.67439,0,0.000885,0,0
0:0:39.181,108.563,6.14323,0,0.000885,0,0
0:0:40.973,116.775,6.60518,0,0.000885,0,0
0:0:42.792,125.16,7.08092,0,0.000885,0,0
0:0:44.584,132.081,7.47392,0,0.000885,0,0
0:0:46.378,140.292,7.93587,0,0.000885,0,0
0:0:48.192,148.504,8.40471,0,0.000885,0,0
0:0:49.985,156.537,8.85976,0,0.000885,0,0
0:0:51.796,164.749,9.32171,0,0.000885,0,0
0:0:53.593,172.493,9.76298,0,0.000885,0,0
0:0:55.384,180.411,10.2111,0,0.000885,0,0
0:0:57.196,187.742,10.6248,0,0.000885,0,0
0:0:58.988,196.598,11.1281,0,0.000885,0,0
0:1:0.768,204.222,11.5556,0,0.000885,0,0
0:1:2.571,211.962,11.9969,0,0.000885,0,0
0:1:4.360,219.644,12.4312,0,0.000885,0,0
0:1:6.169,227.976,12.9001,0,0.000885,0,0
0:1:7.974,235.6,13.3345,0,0.000885,0,0
0:1:9.762,243.634,13.7895,0,0.000885,0,0
0:1:11.567,251.551,14.2377,0,0.000885,0,0
0:1:13.364,259.763,14.6996,0,0.000885,0,0
0:1:15.161,267.681,15.1478,0,0.000885,0,0
0:1:16.971,275.834,15.6097,0,0.000885,0,0
0:1:18.772,283.81,16.0579,0,0.000885,0,0
0:1:20.564,290.847,16.4578,0,0.000885,0,0
0:1:22.367,299.236,16.9335,0,0.000885,0,0
0:1:24.168,307.506,17.4024,0,0.000885,0,0
0:1:25.967,315.539,17.8574,0,0.000885,0,0
0:1:27.768,323.341,18.2987,0,0.000885,0,0
0:1:29.569,330.965,18.7262,0,0.000885,0,0
0:1:31.359,338.999,19.1812,0,0.000885,0,0
0:1:33.171,347.153,19.6432,0,0.000885,0,0
0:1:34.967,355.186,20.0982,0,0.000885,0,0
0:1:36.769,362.579,20.5188,0,0.000885,0,0
0:1:38.569,371.493,21.0221,0,0.000885,0,0
0:1:40.362,379.527,21.4772,0,0.000885,0,0
0:1:42.176,387.151,21.9115,0,0.000885,0,0
0:1:43.968,394.366,22.3183,0,0.000885,0,0
0:1:45.758,401.875,22.7389,0,0.000885,0,0
0:1:47.568,411.434,23.2836,0,0.000885,0,0
0:1:49.372,418.649,23.6904,0,0.000885,0,0
0:1:51.174,426.389,24.1317,0,0.000885,0,0
0:1:52.973,434.422,24.5867,0,0.000885,0,0
0:1:54.766,442.985,25.0693,0,0.000885,0,0
0:1:56.566,450.551,25.4968,0,0.000885,0,0
0:1:58.367,458.821,25.9657,0,0.000885,0,0
0:2:0.171,466.507,26.4,0,0.000885,0,0
0:2:1.973,474.305,26.8413,0,0.000885,0,0
0:2:3.772,482.81,27.3239,0,0.000885,0,0
0:2:5.562,490.728,27.7721,0,0.000885,0,0
0:2:7.373,498.41,28.2065,0,0.000885,0,0
0:2:9.176,506.154,28.6408,0,0.000885,0,0
0:2:10.968,514.188,29.0959,0,0.000885,0,0
0:2:12.776,521.812,29.5302,0,0.000885,0,0
0:2:14.571,529.966,29.9922,0,0.000885,0,0
0:2:16.374,537.941,30.4404,0,0.000885,0,0
0:2:18.172,545.859,30.8885,0,0.000885,0,0
0:2:19.972,554.07,31.3574,0,0.000885,0,0
0:2:21.776,561.753,31.7917,0,0.000885,0,0
0:2:23.572,569.377,32.2192,0,0.000885,0,0
0:2:25.371,578.002,32.7087,0,0.000885,0,0
0:2:27.182,585.8,33.15,0,0.000885,0,0
0:2:28.980,594.073,33.6188,0,0.000885,0,0
0:2:30.775,601.413,34.0325,0,0.000885,0,0
0:2:32.590,609.985,34.5152,0,0.000885,0,0
0:2:34.375,617.435,34.9426,0,0.000885,0,0
0:2:36.163,625.242,35.3839,0,0.000885,0,0
0:2:37.974,633.64,35.8596,0,0.000885,0,0
0:2:39.772,641.856,36.3216,0,0.000885,0,0
0:2:41.577,649.427,36.7491,0,0.000885,0,0
0:2:43.379,657.234,37.1903,0,0.000885,0,0
0:2:45.175,665.805,37.6798,0,0.000885,0,0
0:2:46.984,673.318,38.1004,0,0.000885,0,0
0:2:48.783,680.889,38.5279,0,0.000885,0,0
0:2:50.571,688.816,38.9761,0,0.000885,0,0
0:2:52.391,697.388,39.4656,0,0.000885,0,0
0:2:54.180,704.839,39.8862,0,0.000885,0,0
0:2:55.972,712.529,40.3205,0,0.000885,0,0
0:2:57.787,721.395,40.8239,0,0.000885,0,0
0:2:59.572,728.966,41.2513,0,0.000885,0,0
0:3:1.372,736.479,41.6788,0,0.000885,0,0
0:3:3.179,745.166,42.1683,0,0.000885,0,0
0:3:4.967,752.857,42.6027,0,0.000885,0,0
0:3:6.791,760.606,43.044,0,0.000885,0,0
0:3:8.585,768.88,43.5128,0,0.000885,0,0
0:3:10.372,777.042,43.9748,0,0.000885,0,0
0:3:12.179,784.671,44.4022,0,0.000885,0,0
0:3:13.965,791.832,44.809,0,0.000885,0,0
0:3:15.777,800.635,45.3055,0,0.000885,0,0
0:3:17.584,808.091,45.726,0,0.000885,0,0
0:3:19.375,816.369,46.1949,0,0.000885,0,0
0:3:21.167,823.997,46.6292,0,0.000885,0,0
0:3:22.985,831.982,47.0774,0,0.000885,0,0
0:3:24.777,840.202,47.5462,0,0.000885,0,0
0:3:26.577,848.596,48.022,0,0.000885,0,0
0:3:28.374,856.345,48.4564,0,0.000885,0,0
0:3:30.175,863.68,48.8769,0,0.000885,0,0
0:3:31.986,872.189,49.3527,0,0.000885,0,0
0:3:33.783,879.707,49.7801,0,0.000885,0,0
0:3:35.576,888.101,50.2559,0,0.000885,0,0
0:3:37.384,896.139,50.7109,0,0.000885,0,0
0:3:39.172,904.065,51.1591,0,0.000885,0,0
0:3:40.975,911.463,51.5797,0,0.000885,0,0
0:3:42.784,919.443,52.0278,0,0.000885,0,0
0:3:44.573,927.663,52.4967,0,0.000885,0,0
0:3:46.379,935.643,52.9448,0,0.000885,0,0
0:3:48.182,943.686,53.3999,0,0.000885,0,0
0:3:49.979,951.555,53.8481,0,0.000885,0,0
0:3:51.780,959.593,54.3031,0,0.000885,0,0
0:3:53.578,967.11,54.7237,0,0.000885,0,0
0:3:55.372,975.735,55.2132,0,0.000885,0,0
0:3:57.184,983.72,55.6683,0,0.000885,0,0
0:3:58.984,991.526,56.1095,0,0.000885,0,0
0:4:0.773,999.16,56.5439,0,0.000885,0,0
0:4:2.581,1006.85,56.9783,0,0.000885,0,0
0:4:4.379,1015.07,57.4402,0,0.000885,0,0
0:4:6.173,1022.82,57.8815,0,0.000885,0,0
0:4:7.987,1031.32,58.3641,0,0.000885,0,0
0:4:9.773,1039.19,58.8054,0,0.000885,0,0
0:4:11.575,1046.47,59.2191,0,0.000885,0,0
0:4:13.385,1055.45,59.7293,0,0.000885,0,0
0:4:15.179,1063.49,60.1843,0,0.000885,0,0
0:4:16.984,1070.3,60.5635,0,0.000885,0,0
0:4:18.785,1078.93,61.0531,0,0.000885,0,0
0:4:20.574,1086.5,61.4806,0,0.000885,0,0
0:4:22.382,1094.66,61.9425,0,0.000885,0,0
0:4:24.171,1101.53,62.3355,0,0.000885,0,0
0:4:25.975,1110.92,62.8664,0,0.000885,0,0
0:4:27.790,1118.96,63.3215,0,0.000885,0,0
0:4:29.583,1126.01,63.7213,0,0.000885,0,0
0:4:31.381,1134.58,64.204,0,0.000885,0,0
0:4:33.182,1142.27,64.6383,0,0.000885,0,0
0:4:34.989,1150.02,65.0796,0,0.000885,0,0
0:4:36.790,1158.7,65.5691,0,0.000885,0,0
0:4:38.592,1165.92,65.9759,0,0.000885,0,0
0:4:40.385,1174.61,66.4724,0,0.000885,0,0
0:4:42.191,1182.3,66.9067,0,0.000885,0,0
0:4:43.984,1191.05,67.3963,0,0.000885,0,0
0:4:45.771,1198.56,67.8237,0,0.000885,0,0
0:4:47.590,1206.19,68.2581,0,0.000885,0,0
0:4:49.379,1214.12,68.7063,0,0.000885,0,0
0:4:51.178,1222.04,69.1544,0,0.000885,0,0
0:4:52.989,1229.2,69.5612,0,0.000885,0,0
0:4:54.771,1238.01,70.0576,0,0.000885,0,0
0:4:56.594,1246.16,70.5196,0,0.000885,0,0
0:4:58.393,1253.33,70.9264,0,0.000885,0,0
0:5:0.184,1261.84,71.4021,0,0.000885,0,0
0:5:1.985,1269.41,71.8365,0,0.000885,0,0
0:5:3.778,1277.04,72.264,0,0.000885,0,0
0:5:5.586,1285.73,72.7604,0,0.000885,0,0
0:5:7.395,1293.36,73.1878,0,0.000885,0,0
0:5:9.186,1301.1,73.6291,0,0.000885,0,0
0:5:10.977,1309.21,74.0842,0,0.000885,0,0
0:5:12.797,1317.13,74.5323,0,0.000885,0,0
0:5:14.592,1325.05,74.9805,0,0.000885,0,0
0:5:16.381,1332.92,75.4286,0,0.000885,0,0
0:5:18.190,1341.2,75.8975,0,0.000885,0,0
0:5:19.990,1349.12,76.3456,0,0.000885,0,0
0:5:21.791,1357.05,76.7938,0,0.000885,0,0
0:5:23.588,1364.97,77.242,0,0.000885,0,0
0:5:25.380,1373.31,77.7108,0,0.000885,0,0
0:5:27.188,1380.7,78.1314,0,0.000885,0,0
0:5:28.983,1389.22,78.614,0,0.000885,0,0
0:5:30.787,1397.32,79.0691,0,0.000885,0,0
0:5:32.604,1404.48,79.4759,0,0.000885,0,0
0:5:34.395,1413.34,79.9792,0,0.000885,0,0
0:5:36.176,1420.91,80.4067,0,0.000885,0,0
0:5:37.993,1429.31,80.8824,0,0.000885,0,0
0:5:39.789,1436.53,81.2892,0,0.000885,0,0
0:5:41.600,1444.98,81.7718,0,0.000885,0,0
0:5:43.399,1453.14,82.2338,0,0.000885,0,0
0:5:45.197,1460.18,82.6268,0,0.000885,0,0
0:5:46.997,1468.52,83.1025,0,0.000885,0,0
0:5:48.795,1476.2,83.5369,0,0.000885,0,0
0:5:50.585,1484.21,83.9919,0,0.000885,0,0
0:5:52.396,1492.69,84.4677,0,0.000885,0,0
0:5:54.196,1500.1,84.8883,0,0.000885,0,0
0:5:55.986,1508.23,85.3502,0,0.000885,0,0
0:5:57.795,1516.89,85.8397,0,0.000885,0,0
0:5:59.583,1524.66,86.281,0,0.000885,0,0
0:6:1.383,1531.73,86.6809,0,0.000885,0,0
0:6:3.192,1540.32,87.1635,0,0.000885,0,0
0:6:4.974,1548.21,87.6117,0,0.000885,0,0
0:6:6.774,1555.45,88.0185,0,0.000885,0,0
0:6:8.581,1563.87,88.4942,0,0.000885,0,0
0:6:10.392,1572.42,88.9837,0,0.000885,0,0
0:6:12.192,1579.66,89.3905,0,0.000885,0,0
0:6:13.986,1587.96,89.8594,0,0.000885,0,0
0:6:15.780,1595.38,90.28,0,0.000885,0,0
0:6:17.597,1604.15,90.7764,0,0.000885,0,0
0:6:19.387,1611.8,91.2107,0,0.000885,0,0
0:6:21.187,1619.11,91.6244,0,0.000885,0,0
0:6:22.995,1627.76,92.114,0,0.000885,0,0
0:6:24.794,1635.42,92.5483,0,0.000885,0,0
0:6:26.599,1643.48,93.0034,0,0.000885,0,0
0:6:28.402,1651.61,93.4653,0,0.000885,0,0
0:6:30.187,1659.15,93.8859,0,0.000885,0,0
0:6:32.000,1667.22,94.3479,0,0.000885,0,0
0:6:33.802,1675.52,94.8167,0,0.000885,0,0
0:6:35.595,1683.11,95.2442,0,0.000885,0,0
0:6:37.403,1691,95.6923,0,0.000885,0,0
0:6:39.194,1699.19,96.1543,0,0.000885,0,0
0:6:40.996,1707.32,96.6162,0,0.000885,0,0
0:6:42.805,1714.85,97.0437,0,0.000885,0,0
0:6:44.592,1722.39,97.4643,0,0.000885,0,0
0:6:46.398,1730.99,97.9538,0,0.000885,0,0
0:6:48.201,1738.7,98.3882,0,0.000885,0,0
0:6:49.999,1746.71,98.8432,0,0.000885,0,0
0:6:51.800,1755.07,99.319,0,0.000885,0,0
0:6:53.592,1762.55,99.7396,0,0.000885,0,0
0:6:55.378,1770.79,100.208,0,0.000885,0,0
0:6:57.190,1779.04,100.67,0,0.000885,0,0
0:6:58.998,1786.86,101.119,0,0.000885,0,0
0:7:0.785,1794.05,101.525,0,0.000885,0,0
0:7:2.597,1802.7,102.015,0,0.000885,0,0
0:7:4.382,1810.48,102.449,0,0.000885,0,0
0:7:6.184,1818.07,102.884,0,0.000885,0,0
0:7:7.991,1826.14,103.339,0,0.000885,0,0
0:7:9.787,1791.28,101.367,0,0.000885,0,0
0:7:11.600,1645.25,93.0999,0,0.000885,0,0
0:7:11.922,1500.87,84.9296,0,0.000885,0,0

File: DataFile2021-06-06_070553.csv
Test ID:,Date Tested:,Time:,Test Type:,Diameter Avg. (mm):,Cyl. Corr. Factor:,Height (mm):,Age (days):,Weight (kN):,Break Type:,Ramp Rate (MPa/s):,Load at Break (kN):,Stress at Break (MPa):
12,6/6/2021,07:05,Cylinder,150,1,300,0,13.39,3,0.25,1736.4,98.26
Sample Time,Load (kN),Stress (MPa),Long. Strain,Trans. Strain,Chan1 Deflection (mm),Chan2 Deflection (mm)
0:0:15.972,7.97566,0.448159,0,0.000885,0,0
0:0:17.659,16.1871,0.917003,0,0.000885,0,0
0:0:19.345,19.2386,1.08937,0,0.000885,0,0
0:0:21.038,28.5042,1.61337,0,0.000885,0,0
0:0:22.755,36.0128,2.04085,0,0.000885,0,0
0:0:24.446,43.2856,2.44764,0,0.000885,0,0
0:0:26.140,50.3227,2.84753,0,0.000885,0,0
0:0:27.856,57.947,3.2819,0,0.000885,0,0
0:0:29.547,65.162,3.6887,0,0.000885,0,0
0:0:31.243,73.3111,4.15064,0,0.000885,0,0
0:0:32.956,80.1747,4.53675,0,0.000885,0,0
0:0:34.649,88.2082,4.9918,0,0.000885,0,0
0:0:36.344,95.7747,5.41928,0,0.000885,0,0
0:0:38.055,103.168,5.83986,0,0.000885,0,0
0:0:39.749,110.614,6.26044,0,0.000885,0,0
0:0:41.443,117.829,6.66723,0,0.000885,0,0
0:0:43.155,125.275,7.08781,0,0.000885,0,0
0:0:44.852,133.78,7.57044,0,0.000885,0,0
0:0:46.547,139.999,7.92208,0,0.000885,0,0
0:0:48.260,148.677,8.4116,0,0.000885,0,0
0:0:49.953,155.541,8.80461,0,0.000885,0,0
0:0:51.648,163.05,9.22519,0,0.000885,0,0
0:0:53.361,169.851,9.61129,0,0.000885,0,0
0:0:55.054,178.062,10.0732,0,0.000885,0,0
0:0:56.758,186.096,10.5283,0,0.000885,0,0
0:0:58.459,192.902,10.9144,0,0.000885,0,0
0:1:0.137,200.762,11.3626,0,0.000885,0,0
0:1:1.839,208.092,11.7762,0,0.000885,0,0
0:1:3.531,216.068,12.2244,0,0.000885,0,0
0:1:5.239,223.341,12.6381,0,0.000885,0,0
0:1:6.940,230.614,13.0518,0,0.000885,0,0
0:1:8.634,238.238,13.4793,0,0.000885,0,0
0:1:10.331,245.569,13.8998,0,0.000885,0,0
0:1:12.039,252.726,14.2997,0,0.000885,0,0
0:1:13.724,261.053,14.7755,0,0.000885,0,0
0:1:15.433,267.974,15.1616,0,0.000885,0,0
0:1:17.141,275.656,15.5959,0,0.000885,0,0
0:1:18.829,283.281,16.0303,0,0.000885,0,0
0:1:20.537,290.673,16.4509,0,0.000885,0,0
0:1:22.244,298.178,16.8715,0,0.000885,0,0
0:1:23.932,305.277,17.2783,0,0.000885,0,0
0:1:25.631,313.31,17.7264,0,0.000885,0,0
0:1:27.334,320.641,18.147,0,0.000885,0,0
0:1:29.023,328.386,18.5814,0,0.000885,0,0
0:1:30.734,336.068,19.0157,0,0.000885,0,0
0:1:32.435,342.811,19.4018,0,0.000885,0,0
0:1:34.139,350.613,19.8431,0,0.000885,0,0
0:1:35.836,357.766,20.243,0,0.000885,0,0
0:1:37.540,366.04,20.7119,0,0.000885,0,0
0:1:39.234,373.192,21.1186,0,0.000885,0,0
0:1:40.929,380.937,21.5599,0,0.000885,0,0
0:1:42.635,388.499,21.9874,0,0.000885,0,0
0:1:44.338,395.714,22.3942,0,0.000885,0,0
0:1:46.033,403.044,22.8079,0,0.000885,0,0
0:1:47.737,410.553,23.2353,0,0.000885,0,0
0:1:49.428,417.884,23.649,0,0.000885,0,0
0:1:51.135,425.922,24.1041,0,0.000885,0,0
0:1:52.839,433.719,24.5453,0,0.000885,0,0
0:1:54.520,440.992,24.9521,0,0.000885,0,0
0:1:56.227,448.323,25.3727,0,0.000885,0,0
0:1:57.943,456.125,25.814,0,0.000885,0,0
0:1:59.637,463.104,26.207,0,0.000885,0,0
0:2:1.337,470.493,26.6276,0,0.000885,0,0
0:2:3.035,478.646,27.0826,0,0.000885,0,0
0:2:4.738,485.919,27.4963,0,0.000885,0,0
0:2:6.438,493.601,27.9307,0,0.000885,0,0
0:2:8.138,500.581,28.3306,0,0.000885,0,0
0:2:9.839,509.086,28.8063,0,0.000885,0,0
0:2:11.540,515.42,29.1648,0,0.000885,0,0
0:2:13.241,523.396,29.6199,0,0.000885,0,0
0:2:14.928,530.495,30.0198,0,0.000885,0,0
0:2:16.640,538.528,30.4748,0,0.000885,0,0
0:2:18.331,546.331,30.9161,0,0.000885,0,0
0:2:20.042,553.425,31.316,0,0.000885,0,0
0:2:21.743,561.05,31.7504,0,0.000885,0,0
0:2:23.436,568.149,32.1503,0,0.000885,0,0
0:2:25.132,576.005,32.5984,0,0.000885,0,0
0:2:26.845,583.162,32.9983,0,0.000885,0,0
0:2:28.543,591.022,33.4465,0,0.000885,0,0
0:2:30.238,598.477,33.867,0,0.000885,0,0
0:2:31.947,605.754,34.2807,0,0.000885,0,0
0:2:33.652,613.623,34.722,0,0.000885,0,0
0:2:35.344,620.901,35.1357,0,0.000885,0,0
0:2:37.052,628.534,35.5701,0,0.000885,0,0
0:2:38.747,636.634,36.0251,0,0.000885,0,0
0:2:40.432,643.502,36.4112,0,0.000885,0,0
0:2:42.145,651.309,36.8594,0,0.000885,0,0
0:2:43.842,658.822,37.28,0,0.000885,0,0
0:2:45.539,666.157,37.6936,0,0.000885,0,0
0:2:47.253,673.67,38.1211,0,0.000885,0,0
0:2:48.950,681.476,38.5624,0,0.000885,0,0
0:2:50.635,688.407,38.9554,0,0.000885,0,0
0:2:52.356,696.151,39.3966,0,0.000885,0,0
0:2:54.046,703.491,39.8103,0,0.000885,0,0
0:2:55.744,711.475,40.2585,0,0.000885,0,0
0:2:57.451,718.93,40.686,0,0.000885,0,0
0:2:59.141,726.15,41.0928,0,0.000885,0,0
0:3:0.828,733.779,41.5202,0,0.000885,0,0
0:3:2.558,741.056,41.9339,0,0.000885,0,0
0:3:4.251,748.16,42.3338,0,0.000885,0,0
0:3:5.938,756.26,42.7958,0,0.000885,0,0
0:3:7.656,763.479,43.2025,0,0.000885,0,0
0:3:9.348,771.522,43.6576,0,0.000885,0,0
0:3:11.045,778.683,44.0644,0,0.000885,0,0
0:3:12.754,786.548,44.5126,0,0.000885,0,0
0:3:14.447,793.772,44.9193,0,0.000885,0,0
0:3:16.145,801.516,45.3537,0,0.000885,0,0
0:3:17.854,808.62,45.7605,0,0.000885,0,0
0:3:19.544,816.075,46.1811,0,0.000885,0,0
0:3:21.233,824.118,46.6361,0,0.000885,0,0
0:3:22.942,831.337,47.0429,0,0.000885,0,0
0:3:24.642,838.734,47.4635,0,0.000885,0,0
0:3:26.331,846.421,47.8979,0,0.000885,0,0
0:3:28.048,853.703,48.3116,0,0.000885,0,0
0:3:29.736,861.038,48.7252,0,0.000885,0,0
0:3:31.446,868.671,49.1596,0,0.000885,0,0
0:3:33.153,877.18,49.6354,0,0.000885,0,0
0:3:34.840,883.813,50.0146,0,0.000885,0,0
0:3:36.544,891.682,50.4558,0,0.000885,0,0
0:3:38.252,898.901,50.8695,0,0.000885,0,0
0:3:39.938,906.356,51.2901,0,0.000885,0,0
0:3:41.638,913.927,51.7176,0,0.000885,0,0
0:3:43.348,921.556,52.1519,0,0.000885,0,0
0:3:45.046,929.425,52.5932,0,0.000885,0,0
0:3:46.755,936.293,52.9862,0,0.000885,0,0
0:3:48.456,944.744,53.4619,0,0.000885,0,0
0:3:50.140,951.261,53.8274,0,0.000885,0,0
0:3:51.851,959.068,54.2686,0,0.000885,0,0
0:3:53.554,966.817,54.7099,0,0.000885,0,0
0:3:55.237,974.387,55.1374,0,0.000885,0,0
0:3:56.936,981.723,55.5511,0,0.000885,0,0
0:3:58.639,989.413,55.9923,0,0.000885,0,0
0:4:0.332,996.517,56.3922,0,0.000885,0,0
0:4:2.038,1003.91,56.8128,0,0.000885,0,0
0:4:3.756,1011.89,57.261,0,0.000885,0,0
0:4:5.439,1019.11,57.6677,0,0.000885,0,0
0:4:7.149,1026.98,58.1159,0,0.000885,0,0
0:4:8.853,1034.44,58.5365,0,0.000885,0,0
0:4:10.548,1041.83,58.9571,0,0.000885,0,0
0:4:12.256,1049.41,59.3845,0,0.000885,0,0
0:4:13.951,1056.45,59.7844,0,0.000885,0,0
0:4:15.635,1064.25,60.2257,0,0.000885,0,0
0:4:17.363,1071.47,60.6325,0,0.000885,0,0
0:4:19.057,1079.28,61.0738,0,0.000885,0,0
0:4:20.742,1085.92,61.453,0,0.000885,0,0
0:4:22.453,1094.31,61.9218,0,0.000885,0,0
0:4:24.146,1101.88,62.3562,0,0.000885,0,0
0:4:25.840,1108.92,62.7492,0,0.000885,0,0
0:4:27.557,1117.02,63.2111,0,0.000885,0,0
0:4:29.255,1124.19,63.6179,0,0.000885,0,0
0:4:30.939,1131.7,64.0385,0,0.000885,0,0
0:4:32.658,1139.51,64.4798,0,0.000885,0,0
0:4:34.355,1147.02,64.9072,0,0.000885,0,0
0:4:36.039,1154.71,65.3416,0,0.000885,0,0
0:4:37.755,1162.11,65.7622,0,0.000885,0,0
0:4:39.455,1169.5,66.1828,0,0.000885,0,0
0:4:41.138,1176.78,66.5896,0,0.000885,0,0
0:4:42.853,1184.47,67.0239,0,0.000885,0,0
0:4:44.553,1191.22,67.41,0,0.000885,0,0
0:4:46.241,1199.32,67.8651,0,0.000885,0,0
0:4:47.959,1207.07,68.3064,0,0.000885,0,0
0:4:49.647,1214.17,68.7063,0,0.000885,0,0
0:4:51.346,1221.81,69.1406,0,0.000885,0,0
0:4:53.056,1229.32,69.5681,0,0.000885,0,0
0:4:54.755,1237.06,70.0025,0,0.000885,0,0
0:4:56.454,1244.87,70.4437,0,0.000885,0,0
0:4:58.164,1252.21,70.8574,0,0.000885,0,0
0:4:59.852,1260.02,71.3056,0,0.000885,0,0
0:5:1.552,1267.18,71.7055,0,0.000885,0,0
0:5:3.264,1274.4,72.1192,0,0.000885,0,0
0:5:4.948,1282.03,72.5466,0,0.000885,0,0
0:5:6.647,1289.6,72.9741,0,0.000885,0,0
0:5:8.349,1296.76,73.3809,0,0.000885,0,0
0:5:10.057,1305.1,73.8566,0,0.000885,0,0
0:5:11.768,1312.43,74.2703,0,0.000885,0,0
0:5:13.471,1319.77,74.684,0,0.000885,0,0
0:5:15.157,1326.99,75.0908,0,0.000885,0,0
0:5:16.865,1333.98,75.4907,0,0.000885,0,0
0:5:18.569,1342.43,75.9664,0,0.000885,0,0
0:5:20.255,1348.83,76.325,0,0.000885,0,0
0:5:21.960,1357.05,76.7938,0,0.000885,0,0
0:5:23.660,1364.79,77.2282,0,0.000885,0,0
0:5:25.355,1372.49,77.6694,0,0.000885,0,0
0:5:27.069,1379.88,78.0831,0,0.000885,0,0
0:5:28.767,1387.04,78.4899,0,0.000885,0,0
0:5:30.456,1395.14,78.9519,0,0.000885,0,0
0:5:32.160,1401.95,79.3311,0,0.000885,0,0
0:5:33.859,1409.82,79.7792,0,0.000885,0,0
0:5:35.547,1416.75,80.1722,0,0.000885,0,0
0:5:37.251,1424.73,80.6204,0,0.000885,0,0
0:5:38.950,1433.06,81.0961,0,0.000885,0,0
0:5:40.658,1439.76,81.4753,0,0.000885,0,0
0:5:42.370,1446.74,81.8683,0,0.000885,0,0
0:5:44.070,1454.6,82.3165,0,0.000885,0,0
0:5:45.765,1462.59,82.7647,0,0.000885,0,0
0:5:47.479,1469.99,83.1852,0,0.000885,0,0
0:5:49.170,1477.67,83.6196,0,0.000885,0,0
0:5:50.854,1485.09,84.0402,0,0.000885,0,0
0:5:52.569,1492.33,84.447,0,0.000885,0,0
0:5:54.259,1500.1,84.8883,0,0.000885,0,0
0:5:55.951,1507.47,85.3019,0,0.000885,0,0
0:5:57.667,1514.53,85.7018,0,0.000885,0,0
0:5:59.358,1522.95,86.1845,0,0.000885,0,0
0:6:1.042,1529.73,86.5637,0,0.000885,0,0
0:6:2.759,1537.32,86.9912,0,0.000885,0,0
0:6:4.455,1544.97,87.4255,0,0.000885,0,0
0:6:6.150,1552.51,87.853,0,0.000885,0,0
0:6:7.865,1559.87,88.2736,0,0.000885,0,0
0:6:9.564,1567.47,88.7011,0,0.000885,0,0
0:6:11.255,1575.06,89.1285,0,0.000885,0,0
0:6:12.968,1582.19,89.5353,0,0.000885,0,0
0:6:14.656,1590.31,89.9904,0,0.000885,0,0
0:6:16.366,1597.5,90.3972,0,0.000885,0,0
0:6:18.074,1605.51,90.8522,0,0.000885,0,0
0:6:19.764,1612.04,91.2245,0,0.000885,0,0
0:6:21.451,1620.29,91.6865,0,0.000885,0,0
0:6:23.170,1627.76,92.114,0,0.000885,0,0
0:6:24.867,1634.89,92.5139,0,0.000885,0,0
0:6:26.554,1642.78,92.962,0,0.000885,0,0
0:6:28.266,1649.67,93.355,0,0.000885,0,0
0:6:29.950,1657.91,93.817,0,0.000885,0,0
0:6:31.650,1664.98,94.2169,0,0.000885,0,0
0:6:33.364,1672.4,94.6374,0,0.000885,0,0
0:6:35.045,1680.46,95.0925,0,0.000885,0,0
0:6:36.747,1687.24,95.4786,0,0.000885,0,0
0:6:38.458,1694.83,95.9061,0,0.000885,0,0
0:6:40.154,1702.96,96.368,0,0.000885,0,0
0:6:41.865,1710.26,96.7817,0,0.000885,0,0
0:6:43.567,1717.97,97.2161,0,0.000885,0,0
0:6:45.259,1724.92,97.6091,0,0.000885,0,0
0:6:46.960,1732.64,98.0503,0,0.000885,0,0
0:6:48.671,1732.75,98.0503,0,0.000885,0,0
0:6:50.351,1717.32,97.1816,0,0.000885,0,0
0:6:52.047,1698.13,96.0922,0,0.000885,0,0
0:6:53.761,1699.25,96.1612,0,0.000885,0,0
0:6:55.089,1662.39,94.0721,0,0.000885,0,0