Folder: Experiment-Files (part 76)

File: DataFile2021-07-15_064454.csv
Test ID:,Date Tested:,Time:,Test Type:,Diameter Avg. (mm):,Cyl. Corr. Factor:,Height (mm):,Age (days):,Weight (kN):,Break Type:,Ramp Rate (MPa/s):,Load at Break (kN):,Stress at Break (MPa):
12,7/15/2021,06:44,Cylinder,150,1,300,0,3.6,3,0.24,1402.3,79.35
Sample Time,Load (kN),Stress (MPa),Long. Strain,Trans. Strain,Chan1 Deflection (mm),Chan2 Deflection (mm)
0:0:4.141,5.21776,0.296475,0,0.000885,0,0
0:0:5.544,10.262,0.57916,0,0.000885,0,0
0:0:6.951,17.1835,0.972161,0,0.000885,0,0
0:0:8.352,22.9306,1.29621,0,0.000885,0,0
0:0:9.763,29.9098,1.68922,0,0.000885,0,0
0:0:11.175,37.5964,2.13048,0,0.000885,0,0
0:0:12.571,43.3435,2.45453,0,0.000885,0,0
0:0:13.963,49.3263,2.79238,0,0.000885,0,0
0:0:15.372,54.6642,3.09575,0,0.000885,0,0
0:0:16.778,61.3499,3.47496,0,0.000885,0,0
0:0:18.171,67.742,3.83349,0,0.000885,0,0
0:0:19.564,73.4312,4.15754,0,0.000885,0,0
0:0:20.981,79.7077,4.50917,0,0.000885,0,0
0:0:22.378,85.9218,4.8608,0,0.000885,0,0
0:0:23.770,92.1405,5.21244,0,0.000885,0,0
0:0:25.179,98.8261,5.59165,0,0.000885,0,0
0:0:26.581,104.689,5.9226,0,0.000885,0,0
0:0:27.976,110.205,6.23286,0,0.000885,0,0
0:0:29.368,116.775,6.60518,0,0.000885,0,0
0:0:30.786,122.758,6.94992,0,0.000885,0,0
0:0:32.185,129.265,7.31534,0,0.000885,0,0
0:0:33.579,135.715,7.68076,0,0.000885,0,0
0:0:34.979,141.347,7.99792,0,0.000885,0,0
0:0:36.390,147.859,8.37024,0,0.000885,0,0
0:0:37.787,154.429,8.73566,0,0.000885,0,0
0:0:39.177,159.825,9.04592,0,0.000885,0,0
0:0:40.593,165.803,9.38376,0,0.000885,0,0
0:0:41.991,172.609,9.76987,0,0.000885,0,0
0:0:43.385,178.534,10.1008,0,0.000885,0,0
0:0:44.786,184.454,10.4387,0,0.000885,0,0
0:0:46.196,191.082,10.811,0,0.000885,0,0
0:0:47.584,197.065,11.1488,0,0.000885,0,0
0:0:48.964,203.515,11.5142,0,0.000885,0,0
0:0:50.365,209.912,11.8797,0,0.000885,0,0
0:0:51.760,215.774,12.2106,0,0.000885,0,0
0:0:53.151,221.521,12.5347,0,0.000885,0,0
0:0:54.555,228.091,12.907,0,0.000885,0,0
0:0:55.962,234.484,13.2724,0,0.000885,0,0
0:0:57.361,239.937,13.5758,0,0.000885,0,0
0:0:58.752,246.801,13.9688,0,0.000885,0,0
0:1:0.151,252.726,14.2997,0,0.000885,0,0
0:1:1.551,258.824,14.6445,0,0.000885,0,0
0:1:2.937,265.101,15.003,0,0.000885,0,0
0:1:4.319,271.319,15.3546,0,0.000885,0,0
0:1:5.726,277.124,15.6787,0,0.000885,0,0
0:1:7.114,283.868,16.0648,0,0.000885,0,0
0:1:8.497,289.441,16.3819,0,0.000885,0,0
0:1:9.887,295.833,16.7405,0,0.000885,0,0
0:1:11.289,301.99,17.0921,0,0.000885,0,0
0:1:12.676,308.208,17.4437,0,0.000885,0,0
0:1:14.054,314.249,17.7816,0,0.000885,0,0
0:1:15.461,320.174,18.1194,0,0.000885,0,0
0:1:16.861,326.566,18.4779,0,0.000885,0,0
0:1:18.248,332.843,18.8365,0,0.000885,0,0
0:1:19.638,338.825,19.1743,0,0.000885,0,0
0:1:21.041,344.924,19.5191,0,0.000885,0,0
0:1:22.434,351.023,19.8638,0,0.000885,0,0
0:1:23.813,357.299,20.2223,0,0.000885,0,0
0:1:25.212,363.046,20.5464,0,0.000885,0,0
0:1:26.609,369.558,20.9118,0,0.000885,0,0
0:1:27.988,376.066,21.2841,0,0.000885,0,0
0:1:29.378,381.582,21.5944,0,0.000885,0,0
0:1:30.785,387.974,21.9529,0,0.000885,0,0
0:1:32.167,394.424,22.3183,0,0.000885,0,0
0:1:33.559,400.407,22.6562,0,0.000885,0,0
0:1:34.958,406.038,22.9802,0,0.000885,0,0
0:1:36.366,412.666,23.3525,0,0.000885,0,0
0:1:37.766,418.822,23.6973,0,0.000885,0,0
0:1:39.168,424.921,24.0489,0,0.000885,0,0
0:1:40.573,431.317,24.4074,0,0.000885,0,0
0:1:41.962,436.944,24.7246,0,0.000885,0,0
0:1:43.350,443.279,25.0831,0,0.000885,0,0
0:1:44.751,450.027,25.4692,0,0.000885,0,0
0:1:46.145,456.067,25.8071,0,0.000885,0,0
0:1:47.549,461.699,26.1242,0,0.000885,0,0
0:1:48.942,467.677,26.4621,0,0.000885,0,0
0:1:50.349,474.305,26.8413,0,0.000885,0,0
0:1:51.757,480.114,27.1722,0,0.000885,0,0
0:1:53.162,486.974,27.5583,0,0.000885,0,0
0:1:54.563,492.721,27.8824,0,0.000885,0,0
0:1:55.958,499.704,28.2754,0,0.000885,0,0
0:1:57.356,505.683,28.6132,0,0.000885,0,0
0:1:58.748,511.372,28.9373,0,0.000885,0,0
0:2:0.169,517.942,29.3096,0,0.000885,0,0
0:2:1.558,524.103,29.6612,0,0.000885,0,0
0:2:2.944,530.259,30.006,0,0.000885,0,0
0:2:4.325,535.77,30.3162,0,0.000885,0,0
0:2:5.732,542.283,30.6886,0,0.000885,0,0
0:2:7.119,547.794,30.9988,0,0.000885,0,0
0:2:8.502,553.897,31.3436,0,0.000885,0,0
0:2:9.904,561.579,31.7779,0,0.000885,0,0
0:2:11.293,567.326,32.102,0,0.000885,0,0
0:2:12.680,573.251,32.4398,0,0.000885,0,0
0:2:14.059,579.114,32.7708,0,0.000885,0,0
0:2:15.466,585.097,33.1086,0,0.000885,0,0
0:2:16.864,591.667,33.4809,0,0.000885,0,0
0:2:18.264,597.361,33.805,0,0.000885,0,0
0:2:19.660,604.055,34.1842,0,0.000885,0,0
0:2:21.069,609.687,34.5014,0,0.000885,0,0
0:2:22.460,616.03,34.8599,0,0.000885,0,0
0:2:23.859,623.129,35.2598,0,0.000885,0,0
0:2:25.272,628.823,35.5838,0,0.000885,0,0
0:2:26.667,634.637,35.9148,0,0.000885,0,0
0:2:28.068,641.74,36.3147,0,0.000885,0,0
0:2:29.465,647.141,36.6181,0,0.000885,0,0
0:2:30.871,653.479,36.9766,0,0.000885,0,0
0:2:32.265,660.054,37.3489,0,0.000885,0,0
0:2:33.665,665.748,37.673,0,0.000885,0,0
0:2:35.072,672.38,38.0522,0,0.000885,0,0
0:2:36.470,678.016,38.3693,0,0.000885,0,0
0:2:37.862,684.119,38.7141,0,0.000885,0,0
0:2:39.248,690.048,39.0519,0,0.000885,0,0
0:2:40.662,696.565,39.4173,0,0.000885,0,0
0:2:42.056,702.904,39.7759,0,0.000885,0,0
0:2:43.467,709.358,40.1413,0,0.000885,0,0
0:2:44.871,715.759,40.5067,0,0.000885,0,0
0:2:46.271,721.039,40.8032,0,0.000885,0,0
0:2:47.673,727.849,41.1893,0,0.000885,0,0
0:2:49.060,734.072,41.5409,0,0.000885,0,0
0:2:50.473,740.589,41.9063,0,0.000885,0,0
0:2:51.868,746.047,42.2166,0,0.000885,0,0
0:2:53.268,752.328,42.5751,0,0.000885,0,0
0:2:54.676,758.493,42.9199,0,0.000885,0,0
0:2:56.081,765.067,43.2922,0,0.000885,0,0
0:2:57.474,770.935,43.6231,0,0.000885,0,0
0:2:58.873,776.571,43.9472,0,0.000885,0,0
0:3:0.285,784.084,44.3678,0,0.000885,0,0
0:3:1.675,789.777,44.6918,0,0.000885,0,0
0:3:3.065,795.822,45.0366,0,0.000885,0,0
0:3:4.484,802.045,45.3882,0,0.000885,0,0
0:3:5.888,807.503,45.6985,0,0.000885,0,0
0:3:7.282,814.723,46.1052,0,0.000885,0,0
0:3:8.674,820.185,46.4155,0,0.000885,0,0
0:3:10.078,826.346,46.7602,0,0.000885,0,0
0:3:11.478,832.685,47.1188,0,0.000885,0,0
0:3:12.869,838.672,47.4566,0,0.000885,0,0
0:3:14.255,844.659,47.8014,0,0.000885,0,0
0:3:15.669,852.057,48.215,0,0.000885,0,0
0:3:17.063,857.751,48.5391,0,0.000885,0,0
0:3:18.461,863.329,48.8563,0,0.000885,0,0
0:3:19.870,869.432,49.201,0,0.000885,0,0
0:3:21.277,876.064,49.5733,0,0.000885,0,0
0:3:22.666,881.878,49.9043,0,0.000885,0,0
0:3:24.074,888.216,50.2628,0,0.000885,0,0
0:3:25.486,894.319,50.6075,0,0.000885,0,0
0:3:26.882,900.894,50.9798,0,0.000885,0,0
0:3:28.268,906.708,51.3108,0,0.000885,0,0
0:3:29.679,913.162,51.6762,0,0.000885,0,0
0:3:31.086,919.563,52.0347,0,0.000885,0,0
0:3:32.479,925.137,52.3519,0,0.000885,0,0
0:3:33.867,931.48,52.7104,0,0.000885,0,0
0:3:35.283,938.464,53.1034,0,0.000885,0,0
0:3:36.683,944.215,53.4344,0,0.000885,0,0
0:3:38.069,949.909,53.7515,0,0.000885,0,0
0:3:39.478,956.425,54.1238,0,0.000885,0,0
0:3:40.882,962.177,54.4479,0,0.000885,0,0
0:3:42.275,968.574,54.8133,0,0.000885,0,0
0:3:43.675,975.735,55.2132,0,0.000885,0,0
0:3:45.078,981.313,55.5304,0,0.000885,0,0
0:3:46.478,987.243,55.8682,0,0.000885,0,0
0:3:47.870,993.581,56.2267,0,0.000885,0,0
0:3:49.265,999.453,56.5577,0,0.000885,0,0
0:3:50.681,1005.67,56.9093,0,0.000885,0,0
0:3:52.075,1012.3,57.2816,0,0.000885,0,0
0:3:53.471,1018,57.6057,0,0.000885,0,0
0:3:54.888,1024.99,58.0056,0,0.000885,0,0
0:3:56.288,1030.39,58.309,0,0.000885,0,0
0:3:57.679,1036.37,58.6468,0,0.000885,0,0
0:3:59.064,1042.48,58.9915,0,0.000885,0,0
0:4:0.478,1048.76,59.3501,0,0.000885,0,0
0:4:1.871,1055.75,59.7431,0,0.000885,0,0
0:4:3.261,1061.61,60.074,0,0.000885,0,0
0:4:4.659,1067.66,60.4188,0,0.000885,0,0
0:4:6.066,1074,60.7773,0,0.000885,0,0
0:4:7.458,1080.16,61.122,0,0.000885,0,0
0:4:8.846,1086.15,61.4668,0,0.000885,0,0
0:4:10.257,1092.14,61.8046,0,0.000885,0,0
0:4:11.652,1099.24,62.2045,0,0.000885,0,0
0:4:13.041,1104.52,62.501,0,0.000885,0,0
0:4:14.439,1110.69,62.8526,0,0.000885,0,0
0:4:15.845,1117.2,63.218,0,0.000885,0,0
0:4:17.238,1123.37,63.5697,0,0.000885,0,0
0:4:18.629,1129.53,63.9213,0,0.000885,0,0
0:4:20.036,1135.99,64.2867,0,0.000885,0,0
0:4:21.434,1141.33,64.5832,0,0.000885,0,0
0:4:22.828,1147.96,64.9624,0,0.000885,0,0
0:4:24.218,1153.77,65.2934,0,0.000885,0,0
0:4:25.633,1160.46,65.6657,0,0.000885,0,0
0:4:27.024,1166.45,66.0104,0,0.000885,0,0
0:4:28.419,1172.91,66.3758,0,0.000885,0,0
0:4:29.821,1179.37,66.7413,0,0.000885,0,0
0:4:31.224,1185.29,67.0722,0,0.000885,0,0
0:4:32.611,1191.57,67.4307,0,0.000885,0,0
0:4:34.005,1197.44,67.7617,0,0.000885,0,0
0:4:35.414,1203.32,68.0926,0,0.000885,0,0
0:4:36.810,1210.83,68.5201,0,0.000885,0,0
0:4:38.199,1215.99,68.8097,0,0.000885,0,0
0:4:39.604,1221.8,69.1406,0,0.000885,0,0
0:4:41.008,1228.96,69.5474,0,0.000885,0,0
0:4:42.394,1234.95,69.8853,0,0.000885,0,0
0:4:43.785,1240.06,70.1748,0,0.000885,0,0
0:4:45.196,1246.99,70.5678,0,0.000885,0,0
0:4:46.592,1253.03,70.9057,0,0.000885,0,0
0:4:47.980,1259.67,71.2849,0,0.000885,0,0
0:4:49.384,1265.42,71.6089,0,0.000885,0,0
0:4:50.798,1271.7,71.9606,0,0.000885,0,0
0:4:52.186,1277.68,72.3053,0,0.000885,0,0
0:4:53.588,1284.26,72.6776,0,0.000885,0,0
0:4:54.997,1289.9,72.9948,0,0.000885,0,0
0:4:56.393,1296.53,73.3671,0,0.000885,0,0
0:4:57.781,1302.75,73.7187,0,0.000885,0,0
0:4:59.185,1308.91,74.0704,0,0.000885,0,0
0:5:0.600,1314.55,74.3875,0,0.000885,0,0
0:5:1.986,1321.12,74.7599,0,0.000885,0,0
0:5:3.386,1327.4,75.1184,0,0.000885,0,0
0:5:4.790,1332.92,75.4286,0,0.000885,0,0
0:5:6.193,1339.61,75.8079,0,0.000885,0,0
0:5:7.581,1345.54,76.1388,0,0.000885,0,0
0:5:8.983,1351.82,76.4973,0,0.000885,0,0
0:5:10.396,1357.75,76.8352,0,0.000885,0,0
0:5:11.790,1364.21,77.2006,0,0.000885,0,0
0:5:13.187,1370.49,77.5522,0,0.000885,0,0
0:5:14.594,1376.53,77.897,0,0.000885,0,0
0:5:15.995,1382.29,78.221,0,0.000885,0,0
0:5:17.382,1388.1,78.552,0,0.000885,0,0
0:5:18.784,1394.14,78.8898,0,0.000885,0,0
0:5:20.205,1400.31,79.2414,0,0.000885,0,0
0:5:21.599,1387.22,78.5037,0,0.000885,0,0
0:5:22.990,1374.83,77.8004,0,0.000885,0,0
0:5:24.391,1370.9,77.5798,0,0.000885,0,0
0:5:25.801,1373.95,77.7522,0,0.000885,0,0
0:5:27.184,1382.29,78.221,0,0.000885,0,0
0:5:28.580,1389.62,78.6347,0,0.000885,0,0
0:5:29.988,1393.68,78.8691,0,0.000885,0,0
0:5:31.390,1396.2,79.007,0,0.000885,0,0
0:5:32.792,1396.08,79.0001,0,0.000885,0,0
0:5:33.468,1142.73,64.6659,0,0.000885,0,0

File: DataFile2021-07-15_065740.csv
Test ID:,Date Tested:,Time:,Test Type:,Diameter Avg. (mm):,Cyl. Corr. Factor:,Height (mm):,Age (days):,Weight (kN):,Break Type:,Ramp Rate (MPa/s):,Load at Break (kN):,Stress at Break (MPa):
12,7/15/2021,06:57,Cylinder,150,1,300,0,3.6,3,0.25,2014.86,114.02
Sample Time,Load (kN),Stress (MPa),Long. Strain,Trans. Strain,Chan1 Deflection (mm),Chan2 Deflection (mm)
0:0:24.210,5.7471,0.324054,0,0.000885,0,0
0:0:26.114,12.8465,0.72395,0,0.000885,0,0
0:0:28.012,21.1735,1.19969,0,0.000885,0,0
0:0:29.917,29.5006,1.66853,0,0.000885,0,0
0:0:31.832,38.8864,2.19943,0,0.000885,0,0
0:0:33.722,47.507,2.68896,0,0.000885,0,0
0:0:35.636,56.2478,3.18538,0,0.000885,0,0
0:0:37.532,64.9841,3.67491,0,0.000885,0,0
0:0:39.418,72.3147,4.09549,0,0.000885,0,0
0:0:41.333,80.9398,4.57812,0,0.000885,0,0
0:0:43.226,89.734,5.07454,0,0.000885,0,0
0:0:45.123,97.8876,5.53649,0,0.000885,0,0
0:0:47.029,106.393,6.01912,0,0.000885,0,0
0:0:48.923,114.898,6.50176,0,0.000885,0,0
0:0:50.838,123.518,6.99128,0,0.000885,0,0
0:0:52.727,131.32,7.43255,0,0.000885,0,0
0:0:54.624,139.354,7.8876,0,0.000885,0,0
0:0:56.537,148.268,8.39092,0,0.000885,0,0
0:0:58.425,157.009,8.88734,0,0.000885,0,0
0:1:0.331,165.1,9.3424,0,0.000885,0,0
0:1:2.232,173.605,9.82503,0,0.000885,0,0
0:1:4.121,182.11,10.3077,0,0.000885,0,0
0:1:6.033,190.322,10.7696,0,0.000885,0,0
0:1:7.921,198.475,11.2316,0,0.000885,0,0
0:1:9.817,207.154,11.7211,0,0.000885,0,0
0:1:11.717,215.249,12.183,0,0.000885,0,0
0:1:13.605,223.341,12.6381,0,0.000885,0,0
0:1:15.519,231.494,13.1,0,0.000885,0,0
0:1:17.422,240.409,13.6034,0,0.000885,0,0
0:1:19.310,248.562,14.0653,0,0.000885,0,0
0:1:21.210,257.067,14.5479,0,0.000885,0,0
0:1:23.107,264.985,14.9961,0,0.000885,0,0
0:1:25.001,273.37,15.4718,0,0.000885,0,0
0:1:26.911,282.871,16.0096,0,0.000885,0,0
0:1:28.804,291.198,16.4785,0,0.000885,0,0
0:1:30.712,299.174,16.9266,0,0.000885,0,0
0:1:32.613,307.857,17.4231,0,0.000885,0,0
0:1:34.509,316.126,17.8919,0,0.000885,0,0
0:1:36.409,324.511,18.3607,0,0.000885,0,0
0:1:38.299,333.016,18.8434,0,0.000885,0,0
0:1:40.218,341.348,19.3191,0,0.000885,0,0
0:1:42.114,349.617,19.7811,0,0.000885,0,0
0:1:44.023,357.886,20.2499,0,0.000885,0,0
0:1:45.924,366.622,20.7463,0,0.000885,0,0
0:1:47.816,374.776,21.2083,0,0.000885,0,0
0:1:49.723,382.342,21.6357,0,0.000885,0,0
0:1:51.623,391.844,22.1735,0,0.000885,0,0
0:1:53.523,399.997,22.6355,0,0.000885,0,0
0:1:55.427,408.325,23.1043,0,0.000885,0,0
0:1:57.308,416.772,23.587,0,0.000885,0,0
0:1:59.220,424.805,24.042,0,0.000885,0,0
0:2:1.123,433.252,24.5178,0,0.000885,0,0
0:2:3.016,441.931,25.0073,0,0.000885,0,0
0:2:4.909,449.969,25.4623,0,0.000885,0,0
0:2:6.817,459.177,25.9863,0,0.000885,0,0
0:2:8.712,467.032,26.4276,0,0.000885,0,0
0:2:10.616,475.244,26.8964,0,0.000885,0,0
0:2:12.515,483.926,27.386,0,0.000885,0,0
0:2:14.412,492.311,27.8617,0,0.000885,0,0
0:2:16.311,500.407,28.3168,0,0.000885,0,0
0:2:18.208,509.321,28.8201,0,0.000885,0,0
0:2:20.118,517.181,29.2682,0,0.000885,0,0
0:2:22.029,526.038,29.7647,0,0.000885,0,0
0:2:23.907,534.013,30.2197,0,0.000885,0,0
0:2:25.814,542.518,30.7024,0,0.000885,0,0
0:2:27.693,551.255,31.1919,0,0.000885,0,0
0:2:29.578,559.408,31.6538,0,0.000885,0,0
0:2:31.479,567.384,32.1089,0,0.000885,0,0
0:2:33.356,576.183,32.6053,0,0.000885,0,0
0:2:35.249,584.1,33.0535,0,0.000885,0,0
0:2:37.142,592.961,33.5568,0,0.000885,0,0
0:2:39.027,601.293,34.0256,0,0.000885,0,0
0:2:40.936,609.104,34.4669,0,0.000885,0,0
0:2:42.828,617.849,34.9633,0,0.000885,0,0
0:2:44.732,625.891,35.4184,0,0.000885,0,0
0:2:46.633,634.459,35.901,0,0.000885,0,0
0:2:48.522,642.443,36.3561,0,0.000885,0,0
0:2:50.436,651.246,36.8525,0,0.000885,0,0
0:2:52.326,659.64,37.3282,0,0.000885,0,0
0:2:54.222,668.154,37.8108,0,0.000885,0,0
0:2:56.136,676.428,38.2797,0,0.000885,0,0
0:2:58.019,684.648,38.7416,0,0.000885,0,0
0:2:59.921,693.451,39.2381,0,0.000885,0,0
0:3:1.830,701.258,39.6862,0,0.000885,0,0
0:3:3.734,709.536,40.1482,0,0.000885,0,0
0:3:5.644,717.987,40.6308,0,0.000885,0,0
0:3:7.536,726.737,41.1272,0,0.000885,0,0
0:3:9.416,734.544,41.5685,0,0.000885,0,0
0:3:11.329,744.228,42.1132,0,0.000885,0,0
0:3:13.229,752.386,42.5751,0,0.000885,0,0
0:3:15.133,760.312,43.0233,0,0.000885,0,0
0:3:17.033,769.351,43.5335,0,0.000885,0,0
0:3:18.921,776.922,43.9679,0,0.000885,0,0
0:3:20.836,785.667,44.4574,0,0.000885,0,0
0:3:22.728,794.297,44.9469,0,0.000885,0,0
0:3:24.618,802.455,45.4089,0,0.000885,0,0
0:3:26.530,811.084,45.8984,0,0.000885,0,0
0:3:28.421,819.305,46.3603,0,0.000885,0,0
0:3:30.334,827.52,46.8292,0,0.000885,0,0
0:3:32.234,836.208,47.3187,0,0.000885,0,0
0:3:34.124,844.192,47.7738,0,0.000885,0,0
0:3:36.035,852.764,48.2564,0,0.000885,0,0
0:3:37.933,861.216,48.7321,0,0.000885,0,0
0:3:39.825,869.196,49.1872,0,0.000885,0,0
0:3:41.727,877.825,49.6767,0,0.000885,0,0
0:3:43.626,886.339,50.1594,0,0.000885,0,0
0:3:45.541,894.146,50.6006,0,0.000885,0,0
0:3:47.432,902.775,51.0833,0,0.000885,0,0
0:3:49.319,911.285,51.5659,0,0.000885,0,0
0:3:51.242,920.088,52.0692,0,0.000885,0,0
0:3:53.123,928.015,52.5174,0,0.000885,0,0
0:3:55.024,936.76,53.0069,0,0.000885,0,0
0:3:56.922,945.154,53.4826,0,0.000885,0,0
0:3:58.825,953.725,53.9722,0,0.000885,0,0
0:4:0.734,962.235,54.4548,0,0.000885,0,0
0:4:2.634,970.104,54.8961,0,0.000885,0,0
0:4:4.529,978.435,55.3649,0,0.000885,0,0
0:4:6.441,986.949,55.8475,0,0.000885,0,0
0:4:8.328,995.401,56.3302,0,0.000885,0,0
0:4:10.234,1003.62,56.7921,0,0.000885,0,0
0:4:12.123,1011.95,57.2679,0,0.000885,0,0
0:4:14.020,1020.35,57.7367,0,0.000885,0,0
0:4:15.935,1029.56,58.2607,0,0.000885,0,0
0:4:17.834,1037.13,58.6882,0,0.000885,0,0
0:4:19.723,1045.76,59.1777,0,0.000885,0,0
0:4:21.639,1053.81,59.6328,0,0.000885,0,0
0:4:23.543,1062.38,60.1154,0,0.000885,0,0
0:4:25.453,1070.71,60.5911,0,0.000885,0,0
0:4:27.346,1079.17,61.0669,0,0.000885,0,0
0:4:29.236,1087.5,61.5426,0,0.000885,0,0
0:4:31.144,1096.42,62.0459,0,0.000885,0,0
0:4:33.037,1104.99,62.5286,0,0.000885,0,0
0:4:34.938,1113.56,63.0181,0,0.000885,0,0
0:4:36.831,1121.61,63.4731,0,0.000885,0,0
0:4:38.723,1130.17,63.9558,0,0.000885,0,0
0:4:40.631,1138.39,64.4177,0,0.000885,0,0
0:4:42.521,1146.61,64.8866,0,0.000885,0,0
0:4:44.405,1154.95,65.3554,0,0.000885,0,0
0:4:46.312,1162.69,65.7967,0,0.000885,0,0
0:4:48.199,1172.03,66.3207,0,0.000885,0,0
0:4:50.094,1180.54,66.8033,0,0.000885,0,0
0:4:51.994,1188.87,67.279,0,0.000885,0,0
0:4:53.882,1196.86,67.7272,0,0.000885,0,0
0:4:55.794,1205.31,68.2098,0,0.000885,0,0
0:4:57.679,1214.23,68.7132,0,0.000885,0,0
0:4:59.573,1222.51,69.182,0,0.000885,0,0
0:5:1.485,1230.2,69.6164,0,0.000885,0,0
0:5:3.368,1238.77,70.099,0,0.000885,0,0
0:5:5.271,1246.75,70.5541,0,0.000885,0,0
0:5:7.172,1255.56,71.0505,0,0.000885,0,0
0:5:9.053,1264.07,71.5331,0,0.000885,0,0
0:5:10.964,1271.93,71.9744,0,0.000885,0,0
0:5:12.852,1280.56,72.4639,0,0.000885,0,0
0:5:14.748,1289.01,72.9465,0,0.000885,0,0
0:5:16.650,1297.17,73.4016,0,0.000885,0,0
0:5:18.538,1305.69,73.8842,0,0.000885,0,0
0:5:20.452,1313.61,74.3324,0,0.000885,0,0
0:5:22.344,1322.3,74.8288,0,0.000885,0,0
0:5:24.232,1331.1,75.3252,0,0.000885,0,0
0:5:26.142,1338.91,75.7665,0,0.000885,0,0
0:5:28.025,1347.95,76.2767,0,0.000885,0,0
0:5:29.938,1355.7,76.718,0,0.000885,0,0
0:5:31.847,1364.33,77.2075,0,0.000885,0,0
0:5:33.728,1372.54,77.6694,0,0.000885,0,0
0:5:35.642,1381.05,78.1521,0,0.000885,0,0
0:5:37.539,1389.1,78.6071,0,0.000885,0,0
0:5:39.446,1397.9,79.1036,0,0.000885,0,0
0:5:41.357,1406.82,79.6069,0,0.000885,0,0
0:5:43.246,1414.1,80.0206,0,0.000885,0,0
0:5:45.149,1423.73,80.5652,0,0.000885,0,0
0:5:47.039,1431.83,81.0272,0,0.000885,0,0
0:5:48.939,1440.34,81.5098,0,0.000885,0,0
0:5:50.851,1448.97,81.9925,0,0.000885,0,0
0:5:52.733,1456.31,82.413,0,0.000885,0,0
0:5:54.642,1465.17,82.9095,0,0.000885,0,0
0:5:56.554,1473.27,83.3714,0,0.000885,0,0
0:5:58.437,1481.97,83.8609,0,0.000885,0,0
0:6:0.360,1490.27,84.3298,0,0.000885,0,0
0:6:2.254,1498.45,84.7986,0,0.000885,0,0
0:6:4.149,1506.76,85.2675,0,0.000885,0,0
0:6:6.060,1515.53,85.7639,0,0.000885,0,0
0:6:7.952,1523.84,86.2327,0,0.000885,0,0
0:6:9.846,1532.19,86.7016,0,0.000885,0,0
0:6:11.748,1540.5,87.1773,0,0.000885,0,0
0:6:13.649,1549.27,87.6737,0,0.000885,0,0
0:6:15.552,1557.69,88.1495,0,0.000885,0,0
0:6:17.442,1565.64,88.5976,0,0.000885,0,0
0:6:19.334,1573.77,89.0596,0,0.000885,0,0
0:6:21.242,1582.07,89.5284,0,0.000885,0,0
0:6:23.133,1591.14,90.0386,0,0.000885,0,0
0:6:25.036,1598.91,90.4799,0,0.000885,0,0
0:6:26.949,1607.86,90.9832,0,0.000885,0,0
0:6:28.830,1615.46,91.4176,0,0.000885,0,0
0:6:30.761,1624.53,91.9278,0,0.000885,0,0
0:6:32.653,1632.94,92.4035,0,0.000885,0,0
0:6:34.548,1642.07,92.9206,0,0.000885,0,0
0:6:36.449,1650.37,93.3895,0,0.000885,0,0
0:6:38.345,1658.44,93.8514,0,0.000885,0,0
0:6:40.250,1666.09,94.2789,0,0.000885,0,0
0:6:42.138,1674.93,94.7822,0,0.000885,0,0
0:6:44.046,1683.59,95.2718,0,0.000885,0,0
0:6:45.970,1691.83,95.7406,0,0.000885,0,0
0:6:47.858,1699.95,96.1957,0,0.000885,0,0
0:6:49.753,1708.55,96.6852,0,0.000885,0,0
0:6:51.660,1717.15,97.1678,0,0.000885,0,0
0:6:53.546,1724.98,97.616,0,0.000885,0,0
0:6:55.470,1733.87,98.1193,0,0.000885,0,0
0:6:57.364,1741.82,98.5675,0,0.000885,0,0
0:6:59.251,1750.42,99.0501,0,0.000885,0,0
0:7:1.164,1759.31,99.5534,0,0.000885,0,0
0:7:3.046,1766.78,99.9809,0,0.000885,0,0
0:7:4.961,1775.56,100.477,0,0.000885,0,0
0:7:6.860,1784.63,100.988,0,0.000885,0,0
0:7:8.744,1792.1,101.415,0,0.000885,0,0
0:7:10.657,1801.05,101.918,0,0.000885,0,0
0:7:12.542,1809.36,102.387,0,0.000885,0,0
0:7:14.442,1818.13,102.884,0,0.000885,0,0
0:7:16.355,1826.2,103.339,0,0.000885,0,0
0:7:18.247,1834.91,103.835,0,0.000885,0,0
0:7:20.160,1842.33,104.256,0,0.000885,0,0
0:7:22.059,1851.16,104.752,0,0.000885,0,0
0:7:23.940,1859.76,105.242,0,0.000885,0,0
0:7:25.849,1868.3,105.724,0,0.000885,0,0
0:7:27.754,1876.13,106.165,0,0.000885,0,0
0:7:29.655,1884.9,106.662,0,0.000885,0,0
0:7:31.558,1893.03,107.124,0,0.000885,0,0
0:7:33.445,1901.45,107.6,0,0.000885,0,0
0:7:35.370,1909.75,108.068,0,0.000885,0,0
0:7:37.262,1918.41,108.558,0,0.000885,0,0
0:7:39.160,1926.65,109.027,0,0.000885,0,0
0:7:41.074,1936.02,109.558,0,0.000885,0,0
0:7:42.956,1943.37,109.971,0,0.000885,0,0
0:7:44.859,1952.03,110.461,0,0.000885,0,0
0:7:46.759,1960.57,110.944,0,0.000885,0,0
0:7:48.650,1969.4,111.447,0,0.000885,0,0
0:7:50.560,1976.94,111.874,0,0.000885,0,0
0:7:52.452,1986.01,112.385,0,0.000885,0,0
0:7:54.353,1994.01,112.84,0,0.000885,0,0
0:7:56.266,2002.67,113.329,0,0.000885,0,0
0:7:58.152,2010.74,113.784,0,0.000885,0,0
0:7:59.322,1908.81,108.013,0,0.000885,0,0