Folder: Experiment-Files (part 27)

File: DataFile2021-06-08_053338.csv
Test ID:,Date Tested:,Time:,Test Type:,Diameter Avg. (mm):,Cyl. Corr. Factor:,Height (mm):,Age (days):,Weight (kN):,Break Type:,Ramp Rate (MPa/s):,Load at Break (kN):,Stress at Break (MPa):
12,6/8/2021,05:33,Cylinder,150,1,300,0,3.6,6,0.24,908.82,51.43
Sample Time,Load (kN),Stress (MPa),Long. Strain,Trans. Strain,Chan1 Deflection (mm),Chan2 Deflection (mm)
0:0:13.121,8.32707,0.468843,0,0.000885,0,0
0:0:14.015,16.8321,0.951477,0,0.000885,0,0
0:0:14.910,16.4807,0.930792,0,0.000885,0,0
0:0:15.801,16.0714,0.910108,0,0.000885,0,0
0:0:16.690,20.1193,1.13763,0,0.000885,0,0
0:0:17.606,25.2792,1.42721,0,0.000885,0,0
0:0:18.507,29.7364,1.68232,0,0.000885,0,0
0:0:19.420,33.1393,1.87537,0,0.000885,0,0
0:0:20.326,36.9514,2.08911,0,0.000885,0,0
0:0:21.220,41.582,2.35111,0,0.000885,0,0
0:0:22.117,44.8692,2.53727,0,0.000885,0,0
0:0:23.014,49.0327,2.77169,0,0.000885,0,0
0:0:23.920,53.0806,3.00611,0,0.000885,0,0
0:0:24.829,57.8892,3.27501,0,0.000885,0,0
0:0:25.725,60.2334,3.40601,0,0.000885,0,0
0:0:26.625,64.8684,3.66801,0,0.000885,0,0
0:0:27.519,68.9741,3.90243,0,0.000885,0,0
0:0:28.412,72.3147,4.09549,0,0.000885,0,0
0:0:29.326,77.6526,4.39196,0,0.000885,0,0
0:0:30.233,81.4647,4.61259,0,0.000885,0,0
0:0:31.129,84.6897,4.79186,0,0.000885,0,0
0:0:32.022,89.0312,5.04007,0,0.000885,0,0
0:0:32.916,92.7855,5.25381,0,0.000885,0,0
0:0:33.818,96.7132,5.47444,0,0.000885,0,0
0:0:34.731,100.174,5.66749,0,0.000885,0,0
0:0:35.632,105.338,5.96397,0,0.000885,0,0
0:0:36.526,108.857,6.15702,0,0.000885,0,0
0:0:37.424,112.842,6.38455,0,0.000885,0,0
0:0:38.320,116.361,6.58449,0,0.000885,0,0
0:0:39.233,120.818,6.8396,0,0.000885,0,0
0:0:40.137,124.808,7.06023,0,0.000885,0,0
0:0:41.033,127.86,7.2326,0,0.000885,0,0
0:0:41.931,132.784,7.51529,0,0.000885,0,0
0:0:42.824,136.774,7.74281,0,0.000885,0,0
0:0:43.726,140.292,7.93587,0,0.000885,0,0
0:0:44.636,144.807,8.19787,0,0.000885,0,0
0:0:45.538,148.032,8.37713,0,0.000885,0,0
0:0:46.430,152.258,8.61845,0,0.000885,0,0
0:0:47.324,156.012,8.82529,0,0.000885,0,0
0:0:48.222,160.643,9.08729,0,0.000885,0,0
0:0:49.131,164.691,9.32171,0,0.000885,0,0
0:0:50.039,168.325,9.52855,0,0.000885,0,0
0:0:50.933,172.079,9.7354,0,0.000885,0,0
0:0:51.830,175.776,9.94913,0,0.000885,0,0
0:0:52.726,180.642,10.2249,0,0.000885,0,0
0:0:53.630,184.281,10.4249,0,0.000885,0,0
0:0:54.540,188.387,10.6593,0,0.000885,0,0
0:0:55.439,192.43,10.8868,0,0.000885,0,0
0:0:56.330,195.659,11.073,0,0.000885,0,0
0:0:57.216,200.352,11.335,0,0.000885,0,0
0:0:58.104,204.28,11.5625,0,0.000885,0,0
0:0:59.009,208.15,11.7762,0,0.000885,0,0
0:0:59.912,211.553,11.9693,0,0.000885,0,0
0:1:0.810,215.894,12.2175,0,0.000885,0,0
0:1:1.698,219.764,12.4381,0,0.000885,0,0
0:1:2.590,223.986,12.6726,0,0.000885,0,0
0:1:3.498,227.682,12.8863,0,0.000885,0,0
0:1:4.404,231.904,13.1207,0,0.000885,0,0
0:1:5.311,235.364,13.3207,0,0.000885,0,0
0:1:6.203,239.648,13.562,0,0.000885,0,0
0:1:7.112,244.221,13.8171,0,0.000885,0,0
0:1:8.009,248.033,14.0377,0,0.000885,0,0
0:1:8.903,250.791,14.1894,0,0.000885,0,0
0:1:9.808,255.893,14.479,0,0.000885,0,0
0:1:10.712,259.878,14.7065,0,0.000885,0,0
0:1:11.596,263.517,14.9134,0,0.000885,0,0
0:1:12.497,266.858,15.0995,0,0.000885,0,0
0:1:13.399,271.319,15.3546,0,0.000885,0,0
0:1:14.307,274.953,15.5615,0,0.000885,0,0
0:1:15.210,279.762,15.8304,0,0.000885,0,0
0:1:16.108,283.752,16.0579,0,0.000885,0,0
0:1:17.011,287.386,16.2647,0,0.000885,0,0
0:1:17.909,291.256,16.4785,0,0.000885,0,0
0:1:18.815,295.54,16.7267,0,0.000885,0,0
0:1:19.719,299.116,16.9266,0,0.000885,0,0
0:1:20.614,303.106,17.1542,0,0.000885,0,0
0:1:21.510,307.448,17.3955,0,0.000885,0,0
0:1:22.407,310.731,17.5816,0,0.000885,0,0
0:1:23.306,315.659,17.8643,0,0.000885,0,0
0:1:24.218,319.823,18.0987,0,0.000885,0,0
0:1:25.120,323.105,18.2849,0,0.000885,0,0
0:1:26.008,327.153,18.5124,0,0.000885,0,0
0:1:26.906,331.201,18.74,0,0.000885,0,0
0:1:27.807,334.484,18.9261,0,0.000885,0,0
0:1:28.717,339.702,19.2226,0,0.000885,0,0
0:1:29.619,343.283,19.4225,0,0.000885,0,0
0:1:30.507,346.45,19.6018,0,0.000885,0,0
0:1:31.408,351.2,19.8707,0,0.000885,0,0
0:1:32.306,354.368,20.05,0,0.000885,0,0
0:1:33.191,358.705,20.2982,0,0.000885,0,0
0:1:34.093,362.873,20.5326,0,0.000885,0,0
0:1:34.993,366.858,20.7601,0,0.000885,0,0
0:1:35.893,370.964,20.9945,0,0.000885,0,0
0:1:36.791,375.479,21.2496,0,0.000885,0,0
0:1:37.681,378.237,21.4013,0,0.000885,0,0
0:1:38.573,382.4,21.6426,0,0.000885,0,0
0:1:39.477,386.155,21.8495,0,0.000885,0,0
0:1:40.371,390.67,22.1046,0,0.000885,0,0
0:1:41.262,394.775,22.339,0,0.000885,0,0
0:1:42.155,398.294,22.539,0,0.000885,0,0
0:1:43.042,402.52,22.7803,0,0.000885,0,0
0:1:43.939,405.629,22.9526,0,0.000885,0,0
0:1:44.843,410.669,23.2422,0,0.000885,0,0
0:1:45.738,414.952,23.4835,0,0.000885,0,0
0:1:46.627,417.942,23.649,0,0.000885,0,0
0:1:47.513,421.58,23.8559,0,0.000885,0,0
0:1:48.409,425.802,24.0972,0,0.000885,0,0
0:1:49.314,429.614,24.3109,0,0.000885,0,0
0:1:50.209,434.364,24.5798,0,0.000885,0,0
0:1:51.103,437.945,24.7798,0,0.000885,0,0
0:1:52.012,441.522,24.9866,0,0.000885,0,0
0:1:52.912,446.566,25.2693,0,0.000885,0,0
0:1:53.815,449.791,25.4554,0,0.000885,0,0
0:1:54.716,454.248,25.7037,0,0.000885,0,0
0:1:55.614,458.002,25.9174,0,0.000885,0,0
0:1:56.512,462.166,26.1518,0,0.000885,0,0
0:1:57.403,465.804,26.3587,0,0.000885,0,0
0:1:58.315,470.435,26.6207,0,0.000885,0,0
0:1:59.221,473.954,26.8206,0,0.000885,0,0
0:2:0.117,478.117,27.055,0,0.000885,0,0
0:2:1.016,481.929,27.2688,0,0.000885,0,0
0:2:1.909,485.804,27.4894,0,0.000885,0,0
0:2:2.815,490.261,27.7445,0,0.000885,0,0
0:2:3.713,493.308,27.9169,0,0.000885,0,0
0:2:4.615,497.943,28.1789,0,0.000885,0,0
0:2:5.509,502.222,28.4202,0,0.000885,0,0
0:2:6.417,506.096,28.6408,0,0.000885,0,0
0:2:7.313,509.028,28.8063,0,0.000885,0,0
0:2:8.213,513.956,29.0821,0,0.000885,0,0
0:2:9.116,517.884,29.3096,0,0.000885,0,0
0:2:10.017,521.638,29.5165,0,0.000885,0,0
0:2:10.913,525.744,29.7509,0,0.000885,0,0
0:2:11.811,529.436,29.9577,0,0.000885,0,0
0:2:12.712,533.484,30.1921,0,0.000885,0,0
0:2:13.620,538.061,30.4472,0,0.000885,0,0
0:2:14.522,540.993,30.6127,0,0.000885,0,0
0:2:15.411,545.098,30.8471,0,0.000885,0,0
0:2:16.313,549.613,31.1023,0,0.000885,0,0
0:2:17.210,553.016,31.2953,0,0.000885,0,0
0:2:18.117,557.825,31.5642,0,0.000885,0,0
0:2:19.022,561.228,31.7573,0,0.000885,0,0
0:2:19.923,565.04,31.9779,0,0.000885,0,0
0:2:20.813,568.91,32.1916,0,0.000885,0,0
0:2:21.718,573.483,32.4536,0,0.000885,0,0
0:2:22.616,577.473,32.6811,0,0.000885,0,0
0:2:23.517,580.991,32.8742,0,0.000885,0,0
0:2:24.421,584.63,33.081,0,0.000885,0,0
0:2:25.316,588.615,33.3086,0,0.000885,0,0
0:2:26.216,593.308,33.5775,0,0.000885,0,0
0:2:27.122,597.067,33.7843,0,0.000885,0,0
0:2:28.014,600.706,33.9912,0,0.000885,0,0
0:2:28.921,605.399,34.26,0,0.000885,0,0
0:2:29.831,609.335,34.4807,0,0.000885,0,0
0:2:30.728,613.619,34.722,0,0.000885,0,0
0:2:31.620,616.848,34.9082,0,0.000885,0,0
0:2:32.509,621.19,35.1495,0,0.000885,0,0
0:2:33.420,624.891,35.3632,0,0.000885,0,0
0:2:34.330,629.116,35.5976,0,0.000885,0,0
0:2:35.228,632.813,35.8114,0,0.000885,0,0
0:2:36.119,636.394,36.0113,0,0.000885,0,0
0:2:37.012,641.265,36.2871,0,0.000885,0,0
0:2:37.918,645.081,36.5008,0,0.000885,0,0
0:2:38.820,648.778,36.7146,0,0.000885,0,0
0:2:39.727,652.243,36.9076,0,0.000885,0,0
0:2:40.621,657.114,37.1834,0,0.000885,0,0
0:2:41.515,660.752,37.3903,0,0.000885,0,0
0:2:42.408,664.333,37.5902,0,0.000885,0,0
0:2:43.320,669.03,37.8591,0,0.000885,0,0
0:2:44.229,672.024,38.0315,0,0.000885,0,0
0:2:45.132,676.543,38.2866,0,0.000885,0,0
0:2:46.028,680.244,38.4934,0,0.000885,0,0
0:2:46.919,685.231,38.7761,0,0.000885,0,0
0:2:47.821,688.869,38.983,0,0.000885,0,0
0:2:48.720,692.219,39.1691,0,0.000885,0,0
0:2:49.630,696.738,39.4242,0,0.000885,0,0
0:2:50.529,701.08,39.6724,0,0.000885,0,0
0:2:51.420,704.131,39.8448,0,0.000885,0,0
0:2:52.310,708.886,40.1137,0,0.000885,0,0
0:2:53.216,712.703,40.3274,0,0.000885,0,0
0:2:54.124,715.932,40.5136,0,0.000885,0,0
0:2:55.030,720.394,40.7687,0,0.000885,0,0
0:2:55.920,723.325,40.9342,0,0.000885,0,0
0:2:56.815,728.258,41.21,0,0.000885,0,0
0:2:57.720,732.191,41.4306,0,0.000885,0,0
0:2:58.625,736.065,41.6512,0,0.000885,0,0
0:2:59.530,739.761,41.865,0,0.000885,0,0
0:3:0.422,744.459,42.127,0,0.000885,0,0
0:3:1.319,747.924,42.3269,0,0.000885,0,0
0:3:2.214,751.972,42.5544,0,0.000885,0,0
0:3:3.117,756.376,42.8027,0,0.000885,0,0
0:3:4.027,760.072,43.0095,0,0.000885,0,0
0:3:4.927,763.301,43.1957,0,0.000885,0,0
0:3:5.822,768.408,43.4852,0,0.000885,0,0
0:3:6.725,772.282,43.699,0,0.000885,0,0
0:3:7.616,776.272,43.9265,0,0.000885,0,0
0:3:8.525,780.205,44.154,0,0.000885,0,0
0:3:9.434,783.906,44.3609,0,0.000885,0,0
0:3:10.333,788.367,44.6091,0,0.000885,0,0
0:3:11.222,792.357,44.8366,0,0.000885,0,0
0:3:12.126,795.76,45.0297,0,0.000885,0,0
0:3:13.022,799.87,45.2641,0,0.000885,0,0
0:3:13.925,804.332,45.5192,0,0.000885,0,0
0:3:14.831,808.091,45.726,0,0.000885,0,0
0:3:15.722,811.903,45.9467,0,0.000885,0,0
0:3:16.619,815.661,46.1604,0,0.000885,0,0
0:3:17.523,819.652,46.381,0,0.000885,0,0
0:3:18.424,824.171,46.6361,0,0.000885,0,0
0:3:19.335,827.752,46.843,0,0.000885,0,0
0:3:20.240,831.746,47.0705,0,0.000885,0,0
0:3:21.133,835.621,47.2842,0,0.000885,0,0
0:3:22.024,838.846,47.4704,0,0.000885,0,0
0:3:22.918,843.837,47.7531,0,0.000885,0,0
0:3:23.823,848.005,47.9875,0,0.000885,0,0
0:3:24.731,850.998,48.1599,0,0.000885,0,0
0:3:25.621,855.575,48.415,0,0.000885,0,0
0:3:26.524,859.57,48.6425,0,0.000885,0,0
0:3:27.420,863.618,48.87,0,0.000885,0,0
0:3:28.322,867.55,49.0907,0,0.000885,0,0
0:3:29.232,871.424,49.3113,0,0.000885,0,0
0:3:30.133,875.063,49.5181,0,0.000885,0,0
0:3:31.031,879.938,49.7939,0,0.000885,0,0
0:3:31.922,883.226,49.9801,0,0.000885,0,0
0:3:32.823,887.331,50.2145,0,0.000885,0,0
0:3:33.721,890.739,50.4076,0,0.000885,0,0
0:3:34.628,895.2,50.6558,0,0.000885,0,0
0:3:35.528,898.719,50.8557,0,0.000885,0,0
0:3:36.418,902.593,51.0764,0,0.000885,0,0
0:3:37.310,905.12,51.2212,0,0.000885,0,0
0:3:38.216,908.349,51.4004,0,0.000885,0,0
0:3:39.126,907.878,51.3728,0,0.000885,0,0
0:3:40.021,894.084,50.5937,0,0.000885,0,0
0:3:40.921,866.438,49.0286,0,0.000885,0,0
0:3:41.368,760.366,43.0302,0,0.000885,0,0

File: DataFile2021-06-08_053839.csv
Test ID:,Date Tested:,Time:,Test Type:,Diameter Avg. (mm):,Cyl. Corr. Factor:,Height (mm):,Age (days):,Weight (kN):,Break Type:,Ramp Rate (MPa/s):,Load at Break (kN):,Stress at Break (MPa):
12,6/8/2021,05:38,Cylinder,150,1,300,0,3.6,6,0.24,980.78,55.5
Sample Time,Load (kN),Stress (MPa),Long. Strain,Trans. Strain,Chan1 Deflection (mm),Chan2 Deflection (mm)
0:0:14.655,7.03709,0.399896,0,0.000885,0,0
0:0:15.649,21.992,1.24795,0,0.000885,0,0
0:0:16.641,20.9378,1.1859,0,0.000885,0,0
0:0:17.632,20.702,1.17211,0,0.000885,0,0
0:0:18.632,22.4057,1.26864,0,0.000885,0,0
0:0:19.635,26.9785,1.52374,0,0.000885,0,0
0:0:20.646,31.9071,1.80643,0,0.000885,0,0
0:0:21.652,36.422,2.06153,0,0.000885,0,0
0:0:22.646,40.8792,2.31664,0,0.000885,0,0
0:0:23.640,45.1005,2.55106,0,0.000885,0,0
0:0:24.636,49.3842,2.79238,0,0.000885,0,0
0:0:25.648,53.8413,3.04748,0,0.000885,0,0
0:0:26.652,58.7076,3.32327,0,0.000885,0,0
0:0:27.647,61.7591,3.49564,0,0.000885,0,0
0:0:28.643,67.1548,3.79901,0,0.000885,0,0
0:0:29.640,72.0212,4.0748,0,0.000885,0,0
0:0:30.644,75.5397,4.27475,0,0.000885,0,0
0:0:31.654,80.584,4.55743,0,0.000885,0,0
0:0:32.650,84.4584,4.77807,0,0.000885,0,0
0:0:33.646,89.3826,5.06075,0,0.000885,0,0
0:0:34.641,93.6662,5.30207,0,0.000885,0,0
0:0:35.644,97.8297,5.53649,0,0.000885,0,0
0:0:36.655,102.932,5.82607,0,0.000885,0,0
0:0:37.649,107.211,6.06739,0,0.000885,0,0
0:0:38.643,110.734,6.26733,0,0.000885,0,0
0:0:39.637,115.836,6.55691,0,0.000885,0,0
0:0:40.644,120.173,6.79823,0,0.000885,0,0
0:0:41.651,124.457,7.03955,0,0.000885,0,0
0:0:42.645,129.207,7.30844,0,0.000885,0,0
0:0:43.640,133.313,7.54286,0,0.000885,0,0
0:0:44.637,137.655,7.79108,0,0.000885,0,0
0:0:45.647,142.227,8.04618,0,0.000885,0,0
0:0:46.651,147.507,8.34955,0,0.000885,0,0
0:0:47.644,150.968,8.5426,0,0.000885,0,0
0:0:48.639,155.074,8.77703,0,0.000885,0,0
0:0:49.634,159.882,9.04592,0,0.000885,0,0
0:0:50.647,164.162,9.28724,0,0.000885,0,0
0:0:51.651,168.797,9.54924,0,0.000885,0,0
0:0:52.649,173.312,9.80434,0,0.000885,0,0
0:0:53.642,176.95,10.0112,0,0.000885,0,0
0:0:54.639,181.932,10.2939,0,0.000885,0,0
0:0:55.648,186.274,10.5421,0,0.000885,0,0
0:0:56.652,190.673,10.7903,0,0.000885,0,0
0:0:57.646,195.366,11.0523,0,0.000885,0,0
0:0:58.632,199.645,11.3005,0,0.000885,0,0
0:0:59.629,203.457,11.5142,0,0.000885,0,0
0:1:0.632,208.208,11.7831,0,0.000885,0,0
0:1:1.632,212.082,12.0038,0,0.000885,0,0
0:1:2.628,217.358,12.3002,0,0.000885,0,0
0:1:3.637,220.761,12.4933,0,0.000885,0,0
0:1:4.634,225.569,12.7622,0,0.000885,0,0
0:1:5.642,230.965,13.0725,0,0.000885,0,0
0:1:6.644,235.013,13.3,0,0.000885,0,0
0:1:7.630,239.821,13.5689,0,0.000885,0,0
0:1:8.628,243.34,13.7688,0,0.000885,0,0
0:1:9.637,248.091,14.0377,0,0.000885,0,0
0:1:10.642,253.077,14.3204,0,0.000885,0,0
0:1:11.637,256.422,14.5135,0,0.000885,0,0
0:1:12.635,261.462,14.7961,0,0.000885,0,0
0:1:13.630,265.51,15.0237,0,0.000885,0,0
0:1:14.640,269.38,15.2443,0,0.000885,0,0
0:1:15.643,274.953,15.5615,0,0.000885,0,0
0:1:16.640,278.708,15.7683,0,0.000885,0,0
0:1:17.637,283.868,16.0648,0,0.000885,0,0
0:1:18.636,288.151,16.3061,0,0.000885,0,0
0:1:19.642,292.315,16.5405,0,0.000885,0,0
0:1:20.639,296.772,16.7956,0,0.000885,0,0
0:1:21.643,300.7,17.0163,0,0.000885,0,0
0:1:22.629,304.748,17.2438,0,0.000885,0,0
0:1:23.639,309.908,17.5403,0,0.000885,0,0
0:1:24.636,314.485,17.7954,0,0.000885,0,0
0:1:25.642,319.293,18.0712,0,0.000885,0,0
0:1:26.644,322.99,18.278,0,0.000885,0,0
0:1:27.629,327.096,18.5124,0,0.000885,0,0
0:1:28.638,332.14,18.7951,0,0.000885,0,0
0:1:29.637,336.419,19.0364,0,0.000885,0,0
0:1:30.643,341.641,19.3329,0,0.000885,0,0
0:1:31.638,344.688,19.5053,0,0.000885,0,0
0:1:32.635,349.03,19.7535,0,0.000885,0,0
0:1:33.635,354.19,20.0431,0,0.000885,0,0
0:1:34.642,358.18,20.2706,0,0.000885,0,0
0:1:35.645,363.282,20.5602,0,0.000885,0,0
0:1:36.644,367.445,20.7946,0,0.000885,0,0
0:1:37.642,371.609,21.029,0,0.000885,0,0
0:1:38.638,376.244,21.291,0,0.000885,0,0
0:1:39.632,380.995,21.5599,0,0.000885,0,0
0:1:40.639,385.158,21.7943,0,0.000885,0,0
0:1:41.644,389.437,22.0356,0,0.000885,0,0
0:1:42.630,393.605,22.2701,0,0.000885,0,0
0:1:43.638,398.587,22.5528,0,0.000885,0,0
0:1:44.645,402.751,22.7941,0,0.000885,0,0
0:1:45.650,407.212,23.0423,0,0.000885,0,0
0:1:46.645,410.904,23.2491,0,0.000885,0,0
0:1:47.640,416.3,23.5594,0,0.000885,0,0
0:1:48.638,420.526,23.7938,0,0.000885,0,0
0:1:49.624,425.392,24.0696,0,0.000885,0,0
0:1:50.625,428.559,24.2489,0,0.000885,0,0
0:1:51.634,433.368,24.5247,0,0.000885,0,0
0:1:52.643,437.3,24.7453,0,0.000885,0,0
0:1:53.631,442.754,25.0555,0,0.000885,0,0
0:1:54.640,446.802,25.2831,0,0.000885,0,0
0:1:55.635,450.614,25.4968,0,0.000885,0,0
0:1:56.638,456.067,25.8071,0,0.000885,0,0
0:1:57.635,460.404,26.0553,0,0.000885,0,0
0:1:58.632,464.452,26.2828,0,0.000885,0,0
0:1:59.629,469.203,26.5517,0,0.000885,0,0
0:2:0.646,473.602,26.7999,0,0.000885,0,0
0:2:1.648,478.295,27.0688,0,0.000885,0,0
0:2:2.635,482.752,27.317,0,0.000885,0,0
0:2:3.633,486.506,27.5308,0,0.000885,0,0
0:2:4.643,490.848,27.779,0,0.000885,0,0
0:2:5.648,495.127,28.0203,0,0.000885,0,0
0:2:6.642,499.878,28.2892,0,0.000885,0,0
0:2:7.641,503.574,28.496,0,0.000885,0,0
0:2:8.636,508.97,28.7994,0,0.000885,0,0
0:2:9.633,513.956,29.0821,0,0.000885,0,0
0:2:10.640,517.648,29.2958,0,0.000885,0,0
0:2:11.644,522.048,29.544,0,0.000885,0,0
0:2:12.643,526.038,29.7647,0,0.000885,0,0
0:2:13.630,530.317,30.0129,0,0.000885,0,0
0:2:14.628,535.01,30.2749,0,0.000885,0,0
0:2:15.641,539.409,30.5231,0,0.000885,0,0
0:2:16.640,544.102,30.792,0,0.000885,0,0
0:2:17.646,547.914,31.0057,0,0.000885,0,0
0:2:18.644,553.31,31.3091,0,0.000885,0,0
0:2:19.641,556.944,31.5159,0,0.000885,0,0
0:2:20.636,561.521,31.7779,0,0.000885,0,0
0:2:21.640,566.388,32.0537,0,0.000885,0,0
0:2:22.623,570.315,32.2744,0,0.000885,0,0
0:2:23.632,574.483,32.5088,0,0.000885,0,0
0:2:24.641,579.817,32.8121,0,0.000885,0,0
0:2:25.638,583.398,33.0121,0,0.000885,0,0
0:2:26.643,588.558,33.3086,0,0.000885,0,0
0:2:27.641,593.308,33.5775,0,0.000885,0,0
0:2:28.643,596.595,33.7636,0,0.000885,0,0
0:2:29.645,601.057,34.0118,0,0.000885,0,0
0:2:30.654,605.461,34.26,0,0.000885,0,0
0:2:31.654,610.332,34.5358,0,0.000885,0,0
0:2:32.648,615.202,34.8116,0,0.000885,0,0
0:2:33.638,619.077,35.0323,0,0.000885,0,0
0:2:34.630,623.832,35.3012,0,0.000885,0,0
0:2:35.641,627.764,35.5218,0,0.000885,0,0
0:2:36.642,633.049,35.8252,0,0.000885,0,0
0:2:37.644,636.572,36.0251,0,0.000885,0,0
0:2:38.647,641.091,36.2802,0,0.000885,0,0
0:2:39.638,646.433,36.5836,0,0.000885,0,0
0:2:40.645,650.13,36.7904,0,0.000885,0,0
0:2:41.648,655.001,37.0662,0,0.000885,0,0
0:2:42.643,658.875,37.2868,0,0.000885,0,0
0:2:43.644,663.572,37.5488,0,0.000885,0,0
0:2:44.646,667.62,37.7764,0,0.000885,0,0
0:2:45.646,672.26,38.0453,0,0.000885,0,0
0:2:46.652,677.073,38.3142,0,0.000885,0,0
0:2:47.644,681.063,38.5417,0,0.000885,0,0
0:2:48.646,684.764,38.7485,0,0.000885,0,0
0:2:49.638,689.986,39.045,0,0.000885,0,0
0:2:50.648,694.683,39.3139,0,0.000885,0,0
0:2:51.646,699.79,39.5966,0,0.000885,0,0
0:2:52.636,702.726,39.769,0,0.000885,0,0
0:2:53.629,707.596,40.0448,0,0.000885,0,0
0:2:54.633,712.174,40.2999,0,0.000885,0,0
0:2:55.640,716.226,40.5274,0,0.000885,0,0
0:2:56.653,721.333,40.817,0,0.000885,0,0
0:2:57.646,725.5,41.0583,0,0.000885,0,0
0:2:58.637,729.962,41.3065,0,0.000885,0,0
0:2:59.639,734.424,41.5616,0,0.000885,0,0
0:3:0.654,738.529,41.7891,0,0.000885,0,0
0:3:1.659,743.405,42.0649,0,0.000885,0,0
0:3:2.651,747.275,42.2855,0,0.000885,0,0
0:3:3.644,751.443,42.52,0,0.000885,0,0
0:3:4.654,756.255,42.7958,0,0.000885,0,0
0:3:5.655,760.25,43.0233,0,0.000885,0,0
0:3:6.663,765.944,43.3404,0,0.000885,0,0
0:3:7.656,769.173,43.5266,0,0.000885,0,0
0:3:8.648,773.866,43.7886,0,0.000885,0,0
0:3:9.651,778.27,44.0437,0,0.000885,0,0
0:3:10.661,782.789,44.2988,0,0.000885,0,0
0:3:11.661,788.074,44.5953,0,0.000885,0,0
0:3:12.653,791.534,44.7883,0,0.000885,0,0
0:3:13.646,795.293,45.0021,0,0.000885,0,0
0:3:14.636,799.519,45.2434,0,0.000885,0,0
0:3:15.647,804.683,45.533,0,0.000885,0,0
0:3:16.654,809.087,45.7881,0,0.000885,0,0
0:3:17.649,814.016,46.0639,0,0.000885,0,0
0:3:18.651,818.246,46.3052,0,0.000885,0,0
0:3:19.642,822.703,46.5534,0,0.000885,0,0
0:3:20.651,826.871,46.7947,0,0.000885,0,0
0:3:21.654,830.745,47.0085,0,0.000885,0,0
0:3:22.647,835.385,47.2705,0,0.000885,0,0
0:3:23.638,839.846,47.5256,0,0.000885,0,0
0:3:24.641,844.308,47.7807,0,0.000885,0,0
0:3:25.647,849.059,48.0496,0,0.000885,0,0
0:3:26.654,852.64,48.2495,0,0.000885,0,0
0:3:27.647,857.688,48.5322,0,0.000885,0,0
0:3:28.650,862.737,48.8218,0,0.000885,0,0
0:3:29.652,866.376,49.0286,0,0.000885,0,0
0:3:30.657,871.545,49.3182,0,0.000885,0,0
0:3:31.662,875.241,49.5319,0,0.000885,0,0
0:3:32.656,879.645,49.7801,0,0.000885,0,0
0:3:33.648,884.867,50.0766,0,0.000885,0,0
0:3:34.641,888.741,50.2904,0,0.000885,0,0
0:3:35.654,893.554,50.5661,0,0.000885,0,0
0:3:36.661,897.78,50.8075,0,0.000885,0,0
0:3:37.654,902.006,51.0419,0,0.000885,0,0
0:3:38.643,905.823,51.2625,0,0.000885,0,0
0:3:39.635,910.813,51.5383,0,0.000885,0,0
0:3:40.645,915.8,51.821,0,0.000885,0,0
0:3:41.654,919.265,52.0209,0,0.000885,0,0
0:3:42.644,924.136,52.2967,0,0.000885,0,0
0:3:43.646,928.482,52.5381,0,0.000885,0,0
0:3:44.651,932.708,52.7794,0,0.000885,0,0
0:3:45.660,937.463,53.0483,0,0.000885,0,0
0:3:46.664,941.573,53.2827,0,0.000885,0,0
0:3:47.655,946.737,53.5723,0,0.000885,0,0
0:3:48.650,950.554,53.7929,0,0.000885,0,0
0:3:49.652,954.602,54.0204,0,0.000885,0,0
0:3:50.659,958.828,54.2617,0,0.000885,0,0
0:3:51.664,963.173,54.5031,0,0.000885,0,0
0:3:52.659,968.338,54.7995,0,0.000885,0,0
0:3:53.658,971.567,54.9788,0,0.000885,0,0
0:3:54.652,975.615,55.2063,0,0.000885,0,0
0:3:55.663,980.197,55.4683,0,0.000885,0,0
0:3:56.668,980.664,55.4959,0,0.000885,0,0
0:3:57.646,856.808,48.4839,0,0.000885,0,0