Folder: Experiment-Files (part 60)

File: DataFile2021-06-30_055816.csv
Test ID:,Date Tested:,Time:,Test Type:,Diameter Avg. (mm):,Cyl. Corr. Factor:,Height (mm):,Age (days):,Weight (kN):,Break Type:,Ramp Rate (MPa/s):,Load at Break (kN):,Stress at Break (MPa):
12,6/30/2021,05:58,Cylinder,150,1,300,0,3.6,3,0.25,1781.98,100.84
Sample Time,Load (kN),Stress (MPa),Long. Strain,Trans. Strain,Chan1 Deflection (mm),Chan2 Deflection (mm)
0:0:16.995,5.21776,0.296475,0,0.000885,0,0
0:0:18.824,11.9657,0.675686,0,0.000885,0,0
0:0:20.623,20.5864,1.16521,0,0.000885,0,0
0:0:22.416,29.7942,1.68922,0,0.000885,0,0
0:0:24.232,37.5341,2.12359,0,0.000885,0,0
0:0:26.021,44.8692,2.53727,0,0.000885,0,0
0:0:27.826,53.4899,3.0268,0,0.000885,0,0
0:0:29.628,61.2876,3.46806,0,0.000885,0,0
0:0:31.423,68.7962,3.89554,0,0.000885,0,0
0:0:33.240,77.1855,4.36438,0,0.000885,0,0
0:0:35.038,83.6355,4.7298,0,0.000885,0,0
0:0:36.831,93.6662,5.30207,0,0.000885,0,0
0:0:38.643,100.525,5.68817,0,0.000885,0,0
0:0:40.437,108.27,6.12944,0,0.000885,0,0
0:0:42.227,116.833,6.61207,0,0.000885,0,0
0:0:44.046,125.862,7.12228,0,0.000885,0,0
0:0:45.836,133.429,7.54976,0,0.000885,0,0
0:0:47.630,140.35,7.94276,0,0.000885,0,0
0:0:49.444,148.384,8.39781,0,0.000885,0,0
0:0:51.238,156.07,8.83218,0,0.000885,0,0
0:0:53.042,164.104,9.28724,0,0.000885,0,0
0:0:54.844,172.315,9.74919,0,0.000885,0,0
0:0:56.632,180.349,10.2042,0,0.000885,0,0
0:0:58.444,188.035,10.6386,0,0.000885,0,0
0:1:0.231,196.598,11.1281,0,0.000885,0,0
0:1:2.024,204.044,11.5487,0,0.000885,0,0
0:1:3.820,211.726,11.9831,0,0.000885,0,0
0:1:5.625,220.409,12.4726,0,0.000885,0,0
0:1:7.415,228.327,12.9208,0,0.000885,0,0
0:1:9.212,236.361,13.3758,0,0.000885,0,0
0:1:11.016,243.927,13.8033,0,0.000885,0,0
0:1:12.807,252.196,14.2721,0,0.000885,0,0
0:1:14.629,259.999,14.7134,0,0.000885,0,0
0:1:16.418,267.503,15.1409,0,0.000885,0,0
0:1:18.221,275.776,15.6028,0,0.000885,0,0
0:1:20.020,284.219,16.0855,0,0.000885,0,0
0:1:21.813,291.434,16.4923,0,0.000885,0,0
0:1:23.622,299.703,16.9611,0,0.000885,0,0
0:1:25.427,308.151,17.4368,0,0.000885,0,0
0:1:27.229,314.778,17.8161,0,0.000885,0,0
0:1:29.027,323.341,18.2987,0,0.000885,0,0
0:1:30.828,331.784,18.7744,0,0.000885,0,0
0:1:32.629,338.883,19.1743,0,0.000885,0,0
0:1:34.427,347.326,19.657,0,0.000885,0,0
0:1:36.220,355.244,20.1051,0,0.000885,0,0
0:1:38.032,363.162,20.5533,0,0.000885,0,0
0:1:39.821,371.142,21.0014,0,0.000885,0,0
0:1:41.622,379.411,21.4703,0,0.000885,0,0
0:1:43.433,387.093,21.9046,0,0.000885,0,0
0:1:45.223,394.424,22.3183,0,0.000885,0,0
0:1:47.028,403.458,22.8285,0,0.000885,0,0
0:1:48.833,410.553,23.2353,0,0.000885,0,0
0:1:50.630,418.649,23.6904,0,0.000885,0,0
0:1:52.419,426.682,24.1454,0,0.000885,0,0
0:1:54.231,434.778,24.6005,0,0.000885,0,0
0:1:56.033,442.576,25.0418,0,0.000885,0,0
0:1:57.825,450.551,25.4968,0,0.000885,0,0
0:1:59.624,458.763,25.9588,0,0.000885,0,0
0:2:1.421,466.859,26.4207,0,0.000885,0,0
0:2:3.222,474.367,26.8413,0,0.000885,0,0
0:2:5.012,482.285,27.2894,0,0.000885,0,0
0:2:6.810,490.492,27.7583,0,0.000885,0,0
0:2:8.614,498.294,28.1996,0,0.000885,0,0
0:2:10.430,505.803,28.6201,0,0.000885,0,0
0:2:12.221,514.366,29.1097,0,0.000885,0,0
0:2:14.020,522.226,29.5509,0,0.000885,0,0
0:2:15.822,530.143,29.9991,0,0.000885,0,0
0:2:17.617,538.235,30.461,0,0.000885,0,0
0:2:19.413,546.273,30.9092,0,0.000885,0,0
0:2:21.227,553.897,31.3436,0,0.000885,0,0
0:2:23.041,562.046,31.8055,0,0.000885,0,0
0:2:24.841,569.381,32.2192,0,0.000885,0,0
0:2:26.619,577.708,32.6949,0,0.000885,0,0
0:2:28.434,586.093,33.1638,0,0.000885,0,0
0:2:30.224,594.193,33.6257,0,0.000885,0,0
0:2:32.019,601.706,34.0463,0,0.000885,0,0
0:2:33.834,609.513,34.4945,0,0.000885,0,0
0:2:35.640,618.258,34.984,0,0.000885,0,0
0:2:37.430,625.714,35.4115,0,0.000885,0,0
0:2:39.239,633.347,35.8389,0,0.000885,0,0
0:2:41.028,641.683,36.3147,0,0.000885,0,0
0:2:42.831,649.018,36.7284,0,0.000885,0,0
0:2:44.638,657.589,37.211,0,0.000885,0,0
0:2:46.422,665.863,37.6798,0,0.000885,0,0
0:2:48.230,673.261,38.1004,0,0.000885,0,0
0:2:50.032,681.245,38.5486,0,0.000885,0,0
0:2:51.830,689.225,39.0036,0,0.000885,0,0
0:2:53.644,696.916,39.438,0,0.000885,0,0
0:2:55.441,704.901,39.8862,0,0.000885,0,0
0:2:57.225,712.472,40.3205,0,0.000885,0,0
0:2:59.041,721.395,40.8239,0,0.000885,0,0
0:3:0.826,728.966,41.2513,0,0.000885,0,0
0:3:2.617,736.892,41.6995,0,0.000885,0,0
0:3:4.429,744.405,42.127,0,0.000885,0,0
0:3:6.223,753.796,42.6579,0,0.000885,0,0
0:3:8.024,760.254,43.0233,0,0.000885,0,0
0:3:9.824,768.706,43.499,0,0.000885,0,0
0:3:11.634,776.455,43.9403,0,0.000885,0,0
0:3:13.439,783.968,44.3609,0,0.000885,0,0
0:3:15.234,792.54,44.8504,0,0.000885,0,0
0:3:17.022,800.462,45.2986,0,0.000885,0,0
0:3:18.830,808.562,45.7536,0,0.000885,0,0
0:3:20.631,816.605,46.2087,0,0.000885,0,0
0:3:22.433,824.233,46.643,0,0.000885,0,0
0:3:24.241,831.631,47.0636,0,0.000885,0,0
0:3:26.025,840.202,47.5462,0,0.000885,0,0
0:3:27.825,848.832,48.0358,0,0.000885,0,0
0:3:29.627,856.167,48.4495,0,0.000885,0,0
0:3:31.425,864.209,48.9045,0,0.000885,0,0
0:3:33.257,872.252,49.3596,0,0.000885,0,0
0:3:35.057,880.058,49.8008,0,0.000885,0,0
0:3:36.842,887.923,50.249,0,0.000885,0,0
0:3:38.649,896.201,50.7178,0,0.000885,0,0
0:3:40.443,904.123,51.166,0,0.000885,0,0
0:3:42.227,911.814,51.6004,0,0.000885,0,0
0:3:44.037,919.385,52.0278,0,0.000885,0,0
0:3:45.828,928.015,52.5174,0,0.000885,0,0
0:3:47.628,935.648,52.9448,0,0.000885,0,0
0:3:49.438,943.392,53.3861,0,0.000885,0,0
0:3:51.234,951.964,53.8687,0,0.000885,0,0
0:3:53.050,959.828,54.3169,0,0.000885,0,0
0:3:54.849,967.11,54.7306,0,0.000885,0,0
0:3:56.649,975.797,55.2201,0,0.000885,0,0
0:3:58.456,983.546,55.6545,0,0.000885,0,0
0:4:0.247,991.059,56.082,0,0.000885,0,0
0:4:2.042,999.275,56.5508,0,0.000885,0,0
0:4:3.856,1007.14,56.9921,0,0.000885,0,0
0:4:5.639,1015.6,57.4678,0,0.000885,0,0
0:4:7.439,1022.64,57.8677,0,0.000885,0,0
0:4:9.249,1031.27,58.3572,0,0.000885,0,0
0:4:11.035,1039.07,58.7985,0,0.000885,0,0
0:4:12.847,1046.71,59.2329,0,0.000885,0,0
0:4:14.653,1055.8,59.7431,0,0.000885,0,0
0:4:16.437,1063.2,60.1637,0,0.000885,0,0
0:4:18.244,1070.95,60.6049,0,0.000885,0,0
0:4:20.048,1079.64,61.0944,0,0.000885,0,0
0:4:21.830,1087.03,61.515,0,0.000885,0,0
0:4:23.640,1094.96,61.9632,0,0.000885,0,0
0:4:25.452,1101.88,62.3562,0,0.000885,0,0
0:4:27.236,1111.39,62.894,0,0.000885,0,0
0:4:29.051,1118.61,63.3008,0,0.000885,0,0
0:4:30.847,1126.42,63.742,0,0.000885,0,0
0:4:32.635,1134.7,64.2109,0,0.000885,0,0
0:4:34.448,1142.33,64.6452,0,0.000885,0,0
0:4:36.237,1150.13,65.0865,0,0.000885,0,0
0:4:38.049,1158.65,65.5691,0,0.000885,0,0
0:4:39.847,1166.04,65.9828,0,0.000885,0,0
0:4:41.641,1174.55,66.4655,0,0.000885,0,0
0:4:43.449,1182.12,66.8929,0,0.000885,0,0
0:4:45.242,1190.63,67.3756,0,0.000885,0,0
0:4:47.037,1197.74,67.7755,0,0.000885,0,0
0:4:48.853,1205.96,68.2443,0,0.000885,0,0
0:4:50.650,1214.12,68.7063,0,0.000885,0,0
0:4:52.450,1222.16,69.1613,0,0.000885,0,0
0:4:54.259,1229.38,69.5681,0,0.000885,0,0
0:4:56.058,1237.94,70.0507,0,0.000885,0,0
0:4:57.853,1246.16,70.5196,0,0.000885,0,0
0:4:59.658,1253.97,70.9608,0,0.000885,0,0
0:5:1.453,1262.37,71.4366,0,0.000885,0,0
0:5:3.261,1270,71.8641,0,0.000885,0,0
0:5:5.052,1277.81,72.3122,0,0.000885,0,0
0:5:6.840,1285.55,72.7466,0,0.000885,0,0
0:5:8.659,1294.01,73.2223,0,0.000885,0,0
0:5:10.451,1301.81,73.6705,0,0.000885,0,0
0:5:12.231,1309.21,74.0842,0,0.000885,0,0
0:5:14.045,1317.72,74.5668,0,0.000885,0,0
0:5:15.837,1325.58,75.015,0,0.000885,0,0
0:5:17.658,1333.1,75.4355,0,0.000885,0,0
0:5:19.469,1341.32,75.9044,0,0.000885,0,0
0:5:21.258,1349.36,76.3594,0,0.000885,0,0
0:5:23.056,1356.93,76.7869,0,0.000885,0,0
0:5:24.853,1365.15,77.2489,0,0.000885,0,0
0:5:26.642,1373.25,77.7108,0,0.000885,0,0
0:5:28.451,1381.47,78.1728,0,0.000885,0,0
0:5:30.253,1388.86,78.5933,0,0.000885,0,0
0:5:32.047,1397.14,79.0622,0,0.000885,0,0
0:5:33.858,1405.24,79.5172,0,0.000885,0,0
0:5:35.655,1412.64,79.9378,0,0.000885,0,0
0:5:37.446,1420.97,80.4136,0,0.000885,0,0
0:5:39.260,1428.72,80.8479,0,0.000885,0,0
0:5:41.047,1436.7,81.303,0,0.000885,0,0
0:5:42.838,1445.16,81.7787,0,0.000885,0,0
0:5:44.647,1452.9,82.22,0,0.000885,0,0
0:5:46.441,1460.59,82.6544,0,0.000885,0,0
0:5:48.263,1468.52,83.1025,0,0.000885,0,0
0:5:50.056,1476.56,83.5576,0,0.000885,0,0
0:5:51.846,1484.27,83.9919,0,0.000885,0,0
0:5:53.657,1492.16,84.4401,0,0.000885,0,0
0:5:55.446,1501.11,84.9434,0,0.000885,0,0
0:5:57.258,1508.35,85.3571,0,0.000885,0,0
0:5:59.068,1516.36,85.8053,0,0.000885,0,0
0:6:0.857,1524.72,86.281,0,0.000885,0,0
0:6:2.659,1532.14,86.7016,0,0.000885,0,0
0:6:4.468,1539.91,87.1428,0,0.000885,0,0
0:6:6.255,1548.33,87.6186,0,0.000885,0,0
0:6:8.056,1556.22,88.0667,0,0.000885,0,0
0:6:9.857,1563.94,88.5011,0,0.000885,0,0
0:6:11.656,1572.59,88.9906,0,0.000885,0,0
0:6:13.473,1580.31,89.425,0,0.000885,0,0
0:6:15.265,1588.14,89.8732,0,0.000885,0,0
0:6:17.061,1595.38,90.28,0,0.000885,0,0
0:6:18.874,1603.68,90.7488,0,0.000885,0,0
0:6:20.661,1611.93,91.2176,0,0.000885,0,0
0:6:22.459,1619.58,91.652,0,0.000885,0,0
0:6:24.270,1627.94,92.1209,0,0.000885,0,0
0:6:26.060,1635.66,92.5621,0,0.000885,0,0
0:6:27.860,1643.6,93.0103,0,0.000885,0,0
0:6:29.659,1651.55,93.4584,0,0.000885,0,0
0:6:31.445,1659.68,93.9204,0,0.000885,0,0
0:6:33.249,1667.16,94.341,0,0.000885,0,0
0:6:35.053,1674.99,94.7822,0,0.000885,0,0
0:6:36.849,1683.41,95.2649,0,0.000885,0,0
0:6:38.660,1691.18,95.6992,0,0.000885,0,0
0:6:40.450,1698.78,96.1336,0,0.000885,0,0
0:6:42.247,1707.32,96.6162,0,0.000885,0,0
0:6:44.073,1714.79,97.0368,0,0.000885,0,0
0:6:45.861,1722.86,97.4919,0,0.000885,0,0
0:6:47.655,1731.58,97.9883,0,0.000885,0,0
0:6:49.460,1738.82,98.3951,0,0.000885,0,0
0:6:51.255,1746.95,98.857,0,0.000885,0,0
0:6:53.057,1754.66,99.2914,0,0.000885,0,0
0:6:54.855,1762.73,99.7533,0,0.000885,0,0
0:6:56.650,1770.68,100.202,0,0.000885,0,0
0:6:58.453,1778.68,100.65,0,0.000885,0,0
0:7:0.254,1641.6,92.8931,0,0.000885,0,0
0:7:2.056,1617.81,91.5486,0,0.000885,0,0
0:7:3.863,1635.13,92.5276,0,0.000885,0,0
0:7:5.651,1650.32,93.3895,0,0.000885,0,0
0:7:7.448,1419.39,80.3239,0,0.000885,0,0
0:7:9.251,1383.52,78.29,0,0.000885,0,0
0:7:9.826,1282.32,72.5673,0,0.000885,0,0

File: DataFile2021-06-30_061238.csv
Test ID:,Date Tested:,Time:,Test Type:,Diameter Avg. (mm):,Cyl. Corr. Factor:,Height (mm):,Age (days):,Weight (kN):,Break Type:,Ramp Rate (MPa/s):,Load at Break (kN):,Stress at Break (MPa):
12,6/30/2021,06:12,Cylinder,100,1,200,0,3.6,3,0.24,735.42,93.64
Sample Time,Load (kN),Stress (MPa),Long. Strain,Trans. Strain,Chan1 Deflection (mm),Chan2 Deflection (mm)
0:0:18.921,6.39209,0.813581,0,0.000885,0,0
0:0:20.512,9.44357,1.19969,0,0.000885,0,0
0:0:22.097,10.0886,1.28242,0,0.000885,0,0
0:0:23.689,13.9585,1.77885,0,0.000885,0,0
0:0:25.297,18.1221,2.30974,0,0.000885,0,0
0:0:26.895,21.1157,2.68896,0,0.000885,0,0
0:0:28.485,23.9314,3.04748,0,0.000885,0,0
0:0:30.091,27.45,3.49564,0,0.000885,0,0
0:0:31.690,30.5548,3.88864,0,0.000885,0,0
0:0:33.282,33.2549,4.23338,0,0.000885,0,0
0:0:34.892,36.7734,4.68154,0,0.000885,0,0
0:0:36.492,39.7671,5.06075,0,0.000885,0,0
0:0:38.085,42.8141,5.45375,0,0.000885,0,0
0:0:39.687,45.8656,5.83986,0,0.000885,0,0
0:0:41.292,48.9126,6.22597,0,0.000885,0,0
0:0:42.884,52.2577,6.65344,0,0.000885,0,0
0:0:44.478,55.1891,7.02576,0,0.000885,0,0
0:0:46.088,58.8277,7.48771,0,0.000885,0,0
0:0:47.678,62.1105,7.90829,0,0.000885,0,0
0:0:49.273,64.8684,8.25992,0,0.000885,0,0
0:0:50.888,67.742,8.62534,0,0.000885,0,0
0:0:52.483,70.8513,9.01834,0,0.000885,0,0
0:0:54.072,74.312,9.45961,0,0.000885,0,0
0:0:55.692,77.359,9.85261,0,0.000885,0,0
0:0:57.285,80.5262,10.2525,0,0.000885,0,0
0:0:58.878,83.5198,10.6317,0,0.000885,0,0
0:1:0.497,87.2118,11.1075,0,0.000885,0,0
0:1:2.090,89.8541,11.4384,0,0.000885,0,0
0:1:3.680,93.1947,11.8659,0,0.000885,0,0
0:1:5.289,95.8369,12.2037,0,0.000885,0,0
0:1:6.886,99.529,12.6726,0,0.000885,0,0
0:1:8.478,102.051,12.9966,0,0.000885,0,0
0:1:10.086,105.69,13.4586,0,0.000885,0,0
0:1:11.688,108.328,13.7895,0,0.000885,0,0
0:1:13.280,112.197,14.2859,0,0.000885,0,0
0:1:14.882,115.129,14.6583,0,0.000885,0,0
0:1:16.484,118.416,15.0788,0,0.000885,0,0
0:1:18.074,120.76,15.3753,0,0.000885,0,0
0:1:19.681,124.63,15.8717,0,0.000885,0,0
0:1:21.289,127.74,16.2647,0,0.000885,0,0
0:1:22.880,130.555,16.6233,0,0.000885,0,0
0:1:24.491,134.194,17.0852,0,0.000885,0,0
0:1:26.097,136.774,17.4162,0,0.000885,0,0
0:1:27.690,140.35,17.8712,0,0.000885,0,0
0:1:29.284,143.46,18.2642,0,0.000885,0,0
0:1:30.896,146.217,18.6158,0,0.000885,0,0
0:1:32.485,150.439,19.1536,0,0.000885,0,0
0:1:34.078,153.077,19.4915,0,0.000885,0,0
0:1:35.691,155.835,19.8431,0,0.000885,0,0
0:1:37.284,159.18,20.2637,0,0.000885,0,0
0:1:38.884,162.227,20.6567,0,0.000885,0,0
0:1:40.496,165.452,21.0635,0,0.000885,0,0
0:1:42.094,168.209,21.4151,0,0.000885,0,0
0:1:43.686,171.848,21.8771,0,0.000885,0,0
0:1:45.296,174.722,22.2494,0,0.000885,0,0
0:1:46.889,177.947,22.6562,0,0.000885,0,0
0:1:48.479,180.762,23.0147,0,0.000885,0,0
0:1:50.097,183.636,23.3801,0,0.000885,0,0
0:1:51.698,187.328,23.849,0,0.000885,0,0
0:1:53.288,190.789,24.2902,0,0.000885,0,0
0:1:54.886,193.431,24.6281,0,0.000885,0,0
0:1:56.481,197.301,25.1176,0,0.000885,0,0
0:1:58.081,199.703,25.4279,0,0.000885,0,0
0:1:59.680,203.048,25.8553,0,0.000885,0,0
0:2:1.269,206.215,26.2552,0,0.000885,0,0
0:2:2.887,209.618,26.6896,0,0.000885,0,0
0:2:4.472,212.082,26.9999,0,0.000885,0,0
0:2:6.080,215.832,27.4825,0,0.000885,0,0
0:2:7.679,218.417,27.8066,0,0.000885,0,0
0:2:9.280,222.402,28.3168,0,0.000885,0,0
0:2:10.883,224.631,28.5995,0,0.000885,0,0
0:2:12.483,228.621,29.1097,0,0.000885,0,0
0:2:14.082,231.374,29.4613,0,0.000885,0,0
0:2:15.688,233.896,29.7785,0,0.000885,0,0
0:2:17.270,237.241,30.2059,0,0.000885,0,0
0:2:18.880,241.289,30.723,0,0.000885,0,0
0:2:20.484,244.043,31.0747,0,0.000885,0,0
0:2:22.086,247.152,31.4677,0,0.000885,0,0
0:2:23.687,250.204,31.8538,0,0.000885,0,0
0:2:25.284,252.548,32.1571,0,0.000885,0,0
0:2:26.881,256.831,32.7018,0,0.000885,0,0
0:2:28.474,259.176,32.9983,0,0.000885,0,0
0:2:30.081,262.227,33.3844,0,0.000885,0,0
0:2:31.676,265.274,33.7774,0,0.000885,0,0
0:2:33.277,268.855,34.2325,0,0.000885,0,0
0:2:34.876,272.547,34.7013,0,0.000885,0,0
0:2:36.469,275.247,35.0461,0,0.000885,0,0
0:2:38.086,278.588,35.4735,0,0.000885,0,0
0:2:39.684,281.581,35.8527,0,0.000885,0,0
0:2:41.276,284.864,36.2733,0,0.000885,0,0
0:2:42.886,288.031,36.6732,0,0.000885,0,0
0:2:44.474,291.256,37.0869,0,0.000885,0,0
0:2:46.075,293.778,37.4041,0,0.000885,0,0
0:2:47.680,296.83,37.7902,0,0.000885,0,0
0:2:49.284,300.526,38.2659,0,0.000885,0,0
0:2:50.888,303.636,38.6589,0,0.000885,0,0
0:2:52.487,306.918,39.0795,0,0.000885,0,0
0:2:54.073,309.441,39.3966,0,0.000885,0,0
0:2:55.679,312.43,39.7827,0,0.000885,0,0
0:2:57.279,316.535,40.2999,0,0.000885,0,0
0:2:58.878,319.471,40.6791,0,0.000885,0,0
0:3:0.476,322.638,41.079,0,0.000885,0,0
0:3:2.080,325.806,41.4858,0,0.000885,0,0
0:3:3.677,328.679,41.8512,0,0.000885,0,0
0:3:5.286,331.962,42.2649,0,0.000885,0,0
0:3:6.878,335.307,42.6923,0,0.000885,0,0
0:3:8.479,338.648,43.1198,0,0.000885,0,0
0:3:10.097,340.76,43.3887,0,0.000885,0,0
0:3:11.682,344.515,43.8644,0,0.000885,0,0
0:3:13.292,347.153,44.2023,0,0.000885,0,0
0:3:14.889,349.91,44.5539,0,0.000885,0,0
0:3:16.480,353.015,44.9469,0,0.000885,0,0
0:3:18.058,356.827,45.4296,0,0.000885,0,0
0:3:19.643,360.115,45.8501,0,0.000885,0,0
0:3:21.240,362.93,46.2087,0,0.000885,0,0
0:3:22.821,366.098,46.6155,0,0.000885,0,0
0:3:24.408,368.62,46.9326,0,0.000885,0,0
0:3:26.005,372.374,47.4152,0,0.000885,0,0
0:3:27.588,376.186,47.8979,0,0.000885,0,0
0:3:29.189,378.882,48.2426,0,0.000885,0,0
0:3:30.789,382.578,48.7115,0,0.000885,0,0
0:3:32.383,384.865,49.001,0,0.000885,0,0
0:3:33.984,387.565,49.3458,0,0.000885,0,0
0:3:35.593,391.666,49.8698,0,0.000885,0,0
0:3:37.194,394.775,50.2628,0,0.000885,0,0
0:3:38.780,397.885,50.6627,0,0.000885,0,0
0:3:40.381,400.758,51.0281,0,0.000885,0,0
0:3:41.991,403.632,51.3935,0,0.000885,0,0
0:3:43.577,407.328,51.8624,0,0.000885,0,0
0:3:45.184,410.731,52.2967,0,0.000885,0,0
0:3:46.772,412.96,52.5794,0,0.000885,0,0
0:3:48.394,416.064,52.9724,0,0.000885,0,0
0:3:49.982,419.761,53.4482,0,0.000885,0,0
0:3:51.582,422.87,53.8412,0,0.000885,0,0
0:3:53.180,425.566,54.1859,0,0.000885,0,0
0:3:54.785,428.502,54.5582,0,0.000885,0,0
0:3:56.390,431.491,54.9374,0,0.000885,0,0
0:3:57.991,435.423,55.4407,0,0.000885,0,0
0:3:59.599,438.297,55.8062,0,0.000885,0,0
0:4:1.196,441.931,56.2681,0,0.000885,0,0
0:4:2.796,445.156,56.6818,0,0.000885,0,0
0:4:4.372,447.678,56.999,0,0.000885,0,0
0:4:5.974,450.729,57.392,0,0.000885,0,0
0:4:7.591,454.306,57.847,0,0.000885,0,0
0:4:9.185,456.592,58.1366,0,0.000885,0,0
0:4:10.791,460.289,58.6054,0,0.000885,0,0
0:4:12.398,463.634,59.0329,0,0.000885,0,0
0:4:13.985,467.152,59.4811,0,0.000885,0,0
0:4:15.592,470.141,59.8603,0,0.000885,0,0
0:4:17.188,473.193,60.2464,0,0.000885,0,0
0:4:18.768,475.421,60.5291,0,0.000885,0,0
0:4:20.365,478.704,60.9497,0,0.000885,0,0
0:4:21.948,481.929,61.3633,0,0.000885,0,0
0:4:23.525,484.571,61.6943,0,0.000885,0,0
0:4:25.129,488.677,62.2183,0,0.000885,0,0
0:4:26.709,491.079,62.5286,0,0.000885,0,0
0:4:28.288,495.185,63.0457,0,0.000885,0,0
0:4:29.895,497.182,63.3008,0,0.000885,0,0
0:4:31.482,501.11,63.8041,0,0.000885,0,0
0:4:33.061,504.922,64.2867,0,0.000885,0,0
0:4:34.653,507.502,64.6177,0,0.000885,0,0
0:4:36.248,510.554,65.0038,0,0.000885,0,0
0:4:37.827,512.898,65.3071,0,0.000885,0,0
0:4:39.420,516.301,65.7346,0,0.000885,0,0
0:4:41.009,519.232,66.1138,0,0.000885,0,0
0:4:42.597,522.751,66.562,0,0.000885,0,0
0:4:44.191,526.038,66.9757,0,0.000885,0,0
0:4:45.786,529.378,67.4031,0,0.000885,0,0
0:4:47.369,532.194,67.7617,0,0.000885,0,0
0:4:48.946,534.832,68.0995,0,0.000885,0,0
0:4:50.554,538.88,68.6097,0,0.000885,0,0
0:4:52.136,541.638,68.9614,0,0.000885,0,0
0:4:53.717,545.214,69.4164,0,0.000885,0,0
0:4:55.323,547.5,69.7129,0,0.000885,0,0
0:4:56.902,550.552,70.099,0,0.000885,0,0
0:4:58.479,553.777,70.5058,0,0.000885,0,0
0:5:0.091,557.002,70.9195,0,0.000885,0,0
0:5:1.694,560.405,71.3538,0,0.000885,0,0
0:5:3.287,563.514,71.7468,0,0.000885,0,0
0:5:4.908,566.445,72.1192,0,0.000885,0,0
0:5:6.504,570.084,72.588,0,0.000885,0,0
0:5:8.092,573.251,72.9879,0,0.000885,0,0
0:5:9.688,576.476,73.4016,0,0.000885,0,0
0:5:11.278,579.172,73.7394,0,0.000885,0,0
0:5:12.859,581.988,74.098,0,0.000885,0,0
0:5:14.452,586.151,74.6289,0,0.000885,0,0
0:5:16.050,588.793,74.9667,0,0.000885,0,0
0:5:17.640,591.436,75.3045,0,0.000885,0,0
0:5:19.240,594.309,75.67,0,0.000885,0,0
0:5:20.841,598.068,76.1457,0,0.000885,0,0
0:5:22.430,600.71,76.4835,0,0.000885,0,0
0:5:24.029,604.171,76.9248,0,0.000885,0,0
0:5:25.634,607.636,77.3661,0,0.000885,0,0
0:5:27.223,610.278,77.7039,0,0.000885,0,0
0:5:28.810,613.859,78.159,0,0.000885,0,0
0:5:30.424,616.795,78.5313,0,0.000885,0,0
0:5:32.012,620.256,78.9725,0,0.000885,0,0
0:5:33.607,622.604,79.269,0,0.000885,0,0
0:5:35.217,626.007,79.7034,0,0.000885,0,0
0:5:36.806,629.588,80.1584,0,0.000885,0,0
0:5:38.405,632.524,80.5377,0,0.000885,0,0
0:5:40.017,635.753,80.9445,0,0.000885,0,0
0:5:41.605,638.862,81.3443,0,0.000885,0,0
0:5:43.192,641.683,81.7029,0,0.000885,0,0
0:5:44.797,645.557,82.1924,0,0.000885,0,0
0:5:46.391,648.137,82.5233,0,0.000885,0,0
0:5:47.995,651.544,82.9577,0,0.000885,0,0
0:5:49.595,653.951,83.2611,0,0.000885,0,0
0:5:51.189,657.469,83.7092,0,0.000885,0,0
0:5:52.776,660.935,84.1505,0,0.000885,0,0
0:5:54.383,663.341,84.4608,0,0.000885,0,0
0:5:55.979,667.509,84.9917,0,0.000885,0,0
0:5:57.565,670.093,85.3157,0,0.000885,0,0
0:5:59.161,673.087,85.7018,0,0.000885,0,0
0:6:0.761,675.903,86.0604,0,0.000885,0,0
0:6:2.348,679.662,86.5361,0,0.000885,0,0
0:6:3.940,683.007,86.9636,0,0.000885,0,0
0:6:5.547,685.587,87.2945,0,0.000885,0,0
0:6:7.136,688.349,87.6462,0,0.000885,0,0
0:6:8.726,691.4,88.0323,0,0.000885,0,0
0:6:10.338,694.861,88.4735,0,0.000885,0,0
0:6:11.924,698.442,88.9286,0,0.000885,0,0
0:6:13.511,701.142,89.2733,0,0.000885,0,0
0:6:15.117,703.962,89.6318,0,0.000885,0,0
0:6:16.705,707.014,90.018,0,0.000885,0,0
0:6:18.311,709.598,90.3489,0,0.000885,0,0
0:6:19.922,712.65,90.735,0,0.000885,0,0
0:6:21.512,717.169,91.3142,0,0.000885,0,0
0:6:23.098,720.514,91.7416,0,0.000885,0,0
0:6:24.705,723.686,92.1415,0,0.000885,0,0
0:6:26.293,726.323,92.4794,0,0.000885,0,0
0:6:27.896,728.85,92.7965,0,0.000885,0,0
0:6:29.502,732.96,93.3205,0,0.000885,0,0
0:6:31.106,731.844,93.1826,0,0.000885,0,0
0:6:32.700,730.318,92.9896,0,0.000885,0,0
0:6:34.082,573.073,72.9672,0,0.000885,0,0