Folder: Experiment-Files (part 63)

File: DataFile2021-06-30_072232.csv
Test ID:,Date Tested:,Time:,Test Type:,Diameter Avg. (mm):,Cyl. Corr. Factor:,Height (mm):,Age (days):,Weight (kN):,Break Type:,Ramp Rate (MPa/s):,Load at Break (kN):,Stress at Break (MPa):
12,6/30/2021,07:22,Cylinder,100,1,200,0,3.6,3,0.25,897.67,114.29
Sample Time,Load (kN),Stress (MPa),Long. Strain,Trans. Strain,Chan1 Deflection (mm),Chan2 Deflection (mm)
0:0:18.739,5.7471,0.730844,0,0.000885,0,0
0:0:20.755,9.26565,1.179,0,0.000885,0,0
0:0:22.753,12.7842,1.62716,0,0.000885,0,0
0:0:24.760,16.8321,2.14427,0,0.000885,0,0
0:0:26.769,21.1157,2.68896,0,0.000885,0,0
0:0:28.758,25.4527,3.24054,0,0.000885,0,0
0:0:30.773,28.74,3.66112,0,0.000885,0,0
0:0:32.762,32.9035,4.19201,0,0.000885,0,0
0:0:34.773,37.4184,4.76428,0,0.000885,0,0
0:0:36.778,40.7012,5.18486,0,0.000885,0,0
0:0:38.769,44.6913,5.68817,0,0.000885,0,0
0:0:40.782,48.6191,6.19149,0,0.000885,0,0
0:0:42.773,52.6091,6.7017,0,0.000885,0,0
0:0:44.776,56.1277,7.14986,0,0.000885,0,0
0:0:46.778,59.882,7.6256,0,0.000885,0,0
0:0:48.765,64.4547,8.20476,0,0.000885,0,0
0:0:50.780,67.9154,8.64603,0,0.000885,0,0
0:0:52.769,72.6083,9.24587,0,0.000885,0,0
0:0:54.764,75.602,9.62508,0,0.000885,0,0
0:0:56.770,80.2326,10.218,0,0.000885,0,0
0:0:58.757,83.6355,10.6455,0,0.000885,0,0
0:1:0.772,87.5632,11.1488,0,0.000885,0,0
0:1:2.763,91.9625,11.7073,0,0.000885,0,0
0:1:4.775,95.1919,12.121,0,0.000885,0,0
0:1:6.778,99.3555,12.6519,0,0.000885,0,0
0:1:8.763,103.519,13.1828,0,0.000885,0,0
0:1:10.776,107.211,13.6516,0,0.000885,0,0
0:1:12.763,111.73,14.2239,0,0.000885,0,0
0:1:14.770,115.013,14.6445,0,0.000885,0,0
0:1:16.776,119.177,15.1754,0,0.000885,0,0
0:1:18.764,122.637,15.6166,0,0.000885,0,0
0:1:20.778,127.273,16.2027,0,0.000885,0,0
0:1:22.766,130.32,16.5957,0,0.000885,0,0
0:1:24.773,135.012,17.1886,0,0.000885,0,0
0:1:26.771,138.767,17.6713,0,0.000885,0,0
0:1:28.760,143.224,18.2366,0,0.000885,0,0
0:1:30.785,147.33,18.7606,0,0.000885,0,0
0:1:32.773,150.79,19.2019,0,0.000885,0,0
0:1:34.775,154.545,19.6776,0,0.000885,0,0
0:1:36.776,157.77,20.0913,0,0.000885,0,0
0:1:38.763,162.578,20.6981,0,0.000885,0,0
0:1:40.785,166.626,21.2152,0,0.000885,0,0
0:1:42.774,169.615,21.5944,0,0.000885,0,0
0:1:44.771,173.841,22.1322,0,0.000885,0,0
0:1:46.773,178.182,22.6838,0,0.000885,0,0
0:1:48.770,181.639,23.125,0,0.000885,0,0
0:1:50.785,186.452,23.7386,0,0.000885,0,0
0:1:52.776,189.619,24.1454,0,0.000885,0,0
0:1:54.773,193.782,24.6763,0,0.000885,0,0
0:1:56.761,198.119,25.2279,0,0.000885,0,0
0:1:58.773,201.113,25.6071,0,0.000885,0,0
0:2:0.772,205.277,26.138,0,0.000885,0,0
0:2:2.762,209.146,26.6276,0,0.000885,0,0
0:2:4.763,213.897,27.2343,0,0.000885,0,0
0:2:6.762,217.242,27.6618,0,0.000885,0,0
0:2:8.769,221.054,28.1444,0,0.000885,0,0
0:2:10.767,225.454,28.7029,0,0.000885,0,0
0:2:12.763,229.559,29.2269,0,0.000885,0,0
0:2:14.769,233.429,29.7233,0,0.000885,0,0
0:2:16.766,236.832,30.1508,0,0.000885,0,0
0:2:18.767,240.76,30.6541,0,0.000885,0,0
0:2:20.765,245.511,31.2608,0,0.000885,0,0
0:2:22.767,248.62,31.6538,0,0.000885,0,0
0:2:24.769,252.726,32.1778,0,0.000885,0,0
0:2:26.759,256.538,32.6605,0,0.000885,0,0
0:2:28.761,259.821,33.081,0,0.000885,0,0
0:2:30.760,264.22,33.6395,0,0.000885,0,0
0:2:32.767,268.032,34.129,0,0.000885,0,0
0:2:34.767,271.902,34.6186,0,0.000885,0,0
0:2:36.769,276.888,35.2529,0,0.000885,0,0
0:2:38.767,279.82,35.6252,0,0.000885,0,0
0:2:40.775,283.868,36.1423,0,0.000885,0,0
0:2:42.771,288.503,36.7353,0,0.000885,0,0
0:2:44.779,292.488,37.2386,0,0.000885,0,0
0:2:46.774,295.833,37.6661,0,0.000885,0,0
0:2:48.775,299.588,38.1418,0,0.000885,0,0
0:2:50.775,303.636,38.6589,0,0.000885,0,0
0:2:52.771,307.385,39.1346,0,0.000885,0,0
0:2:54.774,311.963,39.7207,0,0.000885,0,0
0:2:56.771,315.539,40.1758,0,0.000885,0,0
0:2:58.775,319.178,40.6377,0,0.000885,0,0
0:3:0.775,323.808,41.2306,0,0.000885,0,0
0:3:2.770,326.802,41.6099,0,0.000885,0,0
0:3:4.756,330.73,42.1132,0,0.000885,0,0
0:3:6.770,335.538,42.7199,0,0.000885,0,0
0:3:8.773,338.941,43.1543,0,0.000885,0,0
0:3:10.771,342.869,43.6576,0,0.000885,0,0
0:3:12.773,346.917,44.1678,0,0.000885,0,0
0:3:14.776,350.907,44.678,0,0.000885,0,0
0:3:16.776,354.541,45.14,0,0.000885,0,0
0:3:18.773,358.825,45.6847,0,0.000885,0,0
0:3:20.781,362.695,46.1811,0,0.000885,0,0
0:3:22.775,367.33,46.7671,0,0.000885,0,0
0:3:24.774,370.083,47.1188,0,0.000885,0,0
0:3:26.774,374.954,47.7393,0,0.000885,0,0
0:3:28.776,378.766,48.2288,0,0.000885,0,0
0:3:30.773,382.165,48.6563,0,0.000885,0,0
0:3:32.776,386.39,49.1941,0,0.000885,0,0
0:3:34.784,390.082,49.6698,0,0.000885,0,0
0:3:36.779,394.188,50.1869,0,0.000885,0,0
0:3:38.775,398.236,50.704,0,0.000885,0,0
0:3:40.780,401.697,51.1453,0,0.000885,0,0
0:3:42.773,405.335,51.6073,0,0.000885,0,0
0:3:44.774,409.027,52.0761,0,0.000885,0,0
0:3:46.775,413.662,52.6691,0,0.000885,0,0
0:3:48.778,417.768,53.1931,0,0.000885,0,0
0:3:50.776,421.696,53.6895,0,0.000885,0,0
0:3:52.778,424.983,54.1101,0,0.000885,0,0
0:3:54.777,429.498,54.6823,0,0.000885,0,0
0:3:56.781,433.604,55.2063,0,0.000885,0,0
0:3:58.776,437.007,55.6407,0,0.000885,0,0
0:4:0.776,441.05,56.1578,0,0.000885,0,0
0:4:2.779,445.156,56.6818,0,0.000885,0,0
0:4:4.772,448.91,57.1575,0,0.000885,0,0
0:4:6.770,452.664,57.6333,0,0.000885,0,0
0:4:8.776,457.064,58.1918,0,0.000885,0,0
0:4:10.780,460.991,58.6951,0,0.000885,0,0
0:4:12.773,464.51,59.1432,0,0.000885,0,0
0:4:14.787,468.967,59.7086,0,0.000885,0,0
0:4:16.776,472.784,60.1981,0,0.000885,0,0
0:4:18.777,476.889,60.7221,0,0.000885,0,0
0:4:20.783,480.581,61.191,0,0.000885,0,0
0:4:22.777,484.278,61.6598,0,0.000885,0,0
0:4:24.774,488.384,62.1838,0,0.000885,0,0
0:4:26.782,492.196,62.6664,0,0.000885,0,0
0:4:28.785,496.066,63.1629,0,0.000885,0,0
0:4:30.780,500.114,63.6731,0,0.000885,0,0
0:4:32.784,503.632,64.1212,0,0.000885,0,0
0:4:34.774,507.853,64.659,0,0.000885,0,0
0:4:36.774,511.723,65.1555,0,0.000885,0,0
0:4:38.782,515.598,65.645,0,0.000885,0,0
0:4:40.782,519.526,66.1483,0,0.000885,0,0
0:4:42.776,523.516,66.6585,0,0.000885,0,0
0:4:44.792,527.443,67.1549,0,0.000885,0,0
0:4:46.780,531.901,67.7272,0,0.000885,0,0
0:4:48.771,535.188,68.1409,0,0.000885,0,0
0:4:50.768,538.764,68.5959,0,0.000885,0,0
0:4:52.773,542.986,69.1337,0,0.000885,0,0
0:4:54.777,547.563,69.7198,0,0.000885,0,0
0:4:56.776,551.081,70.1679,0,0.000885,0,0
0:4:58.783,555.303,70.7057,0,0.000885,0,0
0:5:0.784,558.648,71.1263,0,0.000885,0,0
0:5:2.789,562.985,71.6848,0,0.000885,0,0
0:5:4.793,566.975,72.1881,0,0.000885,0,0
0:5:6.783,570.845,72.6845,0,0.000885,0,0
0:5:8.785,574.012,73.0844,0,0.000885,0,0
0:5:10.784,578.353,73.636,0,0.000885,0,0
0:5:12.777,582.753,74.2014,0,0.000885,0,0
0:5:14.790,586.151,74.6289,0,0.000885,0,0
0:5:16.783,590.439,75.1735,0,0.000885,0,0
0:5:18.776,594.545,75.6975,0,0.000885,0,0
0:5:20.787,598.304,76.1802,0,0.000885,0,0
0:5:22.783,601.942,76.6421,0,0.000885,0,0
0:5:24.787,606.697,77.2489,0,0.000885,0,0
0:5:26.784,609.633,77.6212,0,0.000885,0,0
0:5:28.785,613.388,78.0969,0,0.000885,0,0
0:5:30.794,618.027,78.6899,0,0.000885,0,0
0:5:32.778,621.781,79.1656,0,0.000885,0,0
0:5:34.800,626.185,79.731,0,0.000885,0,0
0:5:36.792,629.65,80.1722,0,0.000885,0,0
0:5:38.786,633.111,80.6135,0,0.000885,0,0
0:5:40.795,637.279,81.1375,0,0.000885,0,0
0:5:42.792,641.153,81.6339,0,0.000885,0,0
0:5:44.792,645.851,82.2338,0,0.000885,0,0
0:5:46.788,649.605,82.7095,0,0.000885,0,0
0:5:48.772,653.364,83.1921,0,0.000885,0,0
0:5:50.791,657.118,83.6679,0,0.000885,0,0
0:5:52.774,661.286,84.1988,0,0.000885,0,0
0:5:54.787,664.925,84.6607,0,0.000885,0,0
0:5:56.786,668.626,85.1296,0,0.000885,0,0
0:5:58.789,672.673,85.6467,0,0.000885,0,0
0:6:0.796,677.255,86.2327,0,0.000885,0,0
0:6:2.790,681.129,86.7223,0,0.000885,0,0
0:6:4.788,684.417,87.1428,0,0.000885,0,0
0:6:6.783,688.291,87.6324,0,0.000885,0,0
0:6:8.790,692.103,88.1219,0,0.000885,0,0
0:6:10.797,696.329,88.6597,0,0.000885,0,0
0:6:12.777,700.146,89.1423,0,0.000885,0,0
0:6:14.790,703.847,89.6181,0,0.000885,0,0
0:6:16.790,708.246,90.1765,0,0.000885,0,0
0:6:18.772,712.178,90.6798,0,0.000885,0,0
0:6:20.791,715.701,91.128,0,0.000885,0,0
0:6:22.784,720.105,91.6865,0,0.000885,0,0
0:6:24.782,724.153,92.2036,0,0.000885,0,0
0:6:26.777,727.618,92.6449,0,0.000885,0,0
0:6:28.793,731.844,93.1826,0,0.000885,0,0
0:6:30.801,735.247,93.617,0,0.000885,0,0
0:6:32.784,739.535,94.1617,0,0.000885,0,0
0:6:34.794,743.64,94.6857,0,0.000885,0,0
0:6:36.792,747.283,95.1477,0,0.000885,0,0
0:6:38.774,751.567,95.6923,0,0.000885,0,0
0:6:40.780,755.384,96.175,0,0.000885,0,0
0:6:42.787,759.258,96.6714,0,0.000885,0,0
0:6:44.778,763.484,97.2092,0,0.000885,0,0
0:6:46.779,767.065,97.6642,0,0.000885,0,0
0:6:48.794,770.819,98.1469,0,0.000885,0,0
0:6:50.803,775.107,98.6916,0,0.000885,0,0
0:6:52.795,778.919,99.1742,0,0.000885,0,0
0:6:54.807,783.029,99.6982,0,0.000885,0,0
0:6:56.801,786.788,100.174,0,0.000885,0,0
0:6:58.796,791.014,100.712,0,0.000885,0,0
0:7:0.804,794.71,101.187,0,0.000885,0,0
0:7:2.796,798.233,101.636,0,0.000885,0,0
0:7:4.789,802.637,102.194,0,0.000885,0,0
0:7:6.785,806.685,102.711,0,0.000885,0,0
0:7:8.768,810.266,103.166,0,0.000885,0,0
0:7:10.789,814.256,103.676,0,0.000885,0,0
0:7:12.774,818.015,104.152,0,0.000885,0,0
0:7:14.801,822.712,104.752,0,0.000885,0,0
0:7:16.799,825.821,105.145,0,0.000885,0,0
0:7:18.804,830.167,105.697,0,0.000885,0,0
0:7:20.810,833.686,106.152,0,0.000885,0,0
0:7:22.791,837.56,106.641,0,0.000885,0,0
0:7:24.802,842.079,107.22,0,0.000885,0,0
0:7:26.796,845.545,107.655,0,0.000885,0,0
0:7:28.789,849.125,108.117,0,0.000885,0,0
0:7:30.799,853.703,108.696,0,0.000885,0,0
0:7:32.797,857.404,109.165,0,0.000885,0,0
0:7:34.788,860.864,109.606,0,0.000885,0,0
0:7:36.800,865.384,110.185,0,0.000885,0,0
0:7:38.803,869.667,110.73,0,0.000885,0,0
0:7:40.809,873.19,111.178,0,0.000885,0,0
0:7:42.790,877.243,111.695,0,0.000885,0,0
0:7:44.792,880.766,112.143,0,0.000885,0,0
0:7:46.795,885.049,112.688,0,0.000885,0,0
0:7:48.790,888.337,113.108,0,0.000885,0,0
0:7:50.805,882.229,112.329,0,0.000885,0,0
0:7:52.786,896.846,114.191,0,0.000885,0,0
0:7:54.794,877.594,111.736,0,0.000885,0,0
0:7:56.800,858.809,109.344,0,0.000885,0,0
0:7:58.800,865.326,110.178,0,0.000885,0,0
0:8:0.338,630.825,80.317,0,0.000885,0,0

File: DataFile2021-06-30_073509.csv
Test ID:,Date Tested:,Time:,Test Type:,Diameter Avg. (mm):,Cyl. Corr. Factor:,Height (mm):,Age (days):,Weight (kN):,Break Type:,Ramp Rate (MPa/s):,Load at Break (kN):,Stress at Break (MPa):
12,6/30/2021,07:35,Cylinder,100,1,200,0,3.6,3,0.25,798.06,101.61
Sample Time,Load (kN),Stress (MPa),Long. Strain,Trans. Strain,Chan1 Deflection (mm),Chan2 Deflection (mm)
0:0:5.125,5.45352,0.69637,0,0.000885,0,0
0:0:6.818,8.21142,1.048,0,0.000885,0,0
0:0:8.525,11.73,1.49616,0,0.000885,0,0
0:0:10.220,15.0127,1.90985,0,0.000885,0,0
0:0:11.939,18.7092,2.38559,0,0.000885,0,0
0:0:13.627,22.2278,2.82685,0,0.000885,0,0
0:0:15.322,25.1591,3.20606,0,0.000885,0,0
0:0:17.042,28.74,3.66112,0,0.000885,0,0
0:0:18.731,31.5557,4.01964,0,0.000885,0,0
0:0:20.426,35.4256,4.50917,0,0.000885,0,0
0:0:22.144,38.5928,4.91596,0,0.000885,0,0
0:0:23.835,41.582,5.29517,0,0.000885,0,0
0:0:25.530,45.3941,5.77781,0,0.000885,0,0
0:0:27.248,48.6191,6.19149,0,0.000885,0,0
0:0:28.938,52.4935,6.68102,0,0.000885,0,0
0:0:30.633,55.8341,7.10849,0,0.000885,0,0
0:0:32.349,58.8856,7.4946,0,0.000885,0,0
0:0:34.036,61.8169,7.87381,0,0.000885,0,0
0:0:35.738,65.2198,8.30129,0,0.000885,0,0
0:0:37.449,68.3291,8.70118,0,0.000885,0,0
0:0:39.137,71.9055,9.15624,0,0.000885,0,0
0:0:40.840,75.3084,9.59061,0,0.000885,0,0
0:0:42.548,78.7068,10.025,0,0.000885,0,0
0:0:44.240,81.9362,10.4318,0,0.000885,0,0
0:0:45.940,85.0411,10.8248,0,0.000885,0,0
0:0:47.649,88.6797,11.2936,0,0.000885,0,0
0:0:49.339,91.7312,11.6797,0,0.000885,0,0
0:0:51.048,95.8369,12.2037,0,0.000885,0,0
0:0:52.749,98.6482,12.5622,0,0.000885,0,0
0:0:54.441,101.993,12.9828,0,0.000885,0,0
0:0:56.146,105.218,13.3965,0,0.000885,0,0
0:0:57.850,108.328,13.7895,0,0.000885,0,0
0:0:59.543,112.255,14.2928,0,0.000885,0,0
0:1:1.249,115.307,14.6789,0,0.000885,0,0
0:1:2.953,118.71,15.1133,0,0.000885,0,0
0:1:4.645,122.108,15.5477,0,0.000885,0,0
0:1:6.351,125.217,15.9407,0,0.000885,0,0
0:1:8.051,128.678,16.3819,0,0.000885,0,0
0:1:9.743,131.845,16.7887,0,0.000885,0,0
0:1:11.453,134.955,17.1817,0,0.000885,0,0
0:1:13.147,138.709,17.6575,0,0.000885,0,0
0:1:14.844,142.695,18.1677,0,0.000885,0,0
0:1:16.552,145.043,18.4642,0,0.000885,0,0
0:1:18.247,148.74,18.9399,0,0.000885,0,0
0:1:19.940,151.907,19.3398,0,0.000885,0,0
0:1:21.652,155.305,19.7742,0,0.000885,0,0
0:1:23.347,159.117,20.2568,0,0.000885,0,0
0:1:25.038,161.991,20.6222,0,0.000885,0,0
0:1:26.752,165.572,21.0842,0,0.000885,0,0
0:1:28.449,168.503,21.4565,0,0.000885,0,0
0:1:30.140,171.906,21.8909,0,0.000885,0,0
0:1:31.859,174.602,22.2287,0,0.000885,0,0
0:1:33.550,179.059,22.801,0,0.000885,0,0
0:1:35.241,182.226,23.2009,0,0.000885,0,0
0:1:36.959,185.571,23.6283,0,0.000885,0,0
0:1:38.650,188.68,24.0213,0,0.000885,0,0
0:1:40.340,192.199,24.4695,0,0.000885,0,0
0:1:42.045,195.775,24.9245,0,0.000885,0,0
0:1:43.736,198.475,25.2693,0,0.000885,0,0
0:1:45.421,202.052,25.7243,0,0.000885,0,0
0:1:47.129,205.512,26.1656,0,0.000885,0,0
0:1:48.829,208.679,26.5724,0,0.000885,0,0
0:1:50.533,212.198,27.0206,0,0.000885,0,0
0:1:52.231,215.249,27.4067,0,0.000885,0,0
0:1:53.931,218.706,27.8479,0,0.000885,0,0
0:1:55.625,221.935,28.2547,0,0.000885,0,0
0:1:57.321,226.041,28.7787,0,0.000885,0,0
0:1:59.021,228.972,29.151,0,0.000885,0,0
0:2:0.739,232.019,29.544,0,0.000885,0,0
0:2:2.439,235.186,29.9439,0,0.000885,0,0
0:2:4.114,238.883,30.4128,0,0.000885,0,0
0:2:5.802,241.756,30.7782,0,0.000885,0,0
0:2:7.498,245.337,31.2401,0,0.000885,0,0
0:2:9.178,249.149,31.7228,0,0.000885,0,0
0:2:10.863,252.196,32.1089,0,0.000885,0,0
0:2:12.562,255.19,32.495,0,0.000885,0,0
0:2:14.244,258.94,32.9707,0,0.000885,0,0
0:2:15.934,262.049,33.3637,0,0.000885,0,0
0:2:17.622,265.51,33.805,0,0.000885,0,0
0:2:19.333,268.383,34.1704,0,0.000885,0,0
0:2:21.043,272.196,34.6599,0,0.000885,0,0
0:2:22.733,274.486,34.9495,0,0.000885,0,0
0:2:24.432,279.001,35.5218,0,0.000885,0,0
0:2:26.123,281.991,35.901,0,0.000885,0,0
0:2:27.833,285.509,36.3492,0,0.000885,0,0
0:2:29.530,288.325,36.7077,0,0.000885,0,0
0:2:31.242,292.137,37.1972,0,0.000885,0,0
0:2:32.925,295.718,37.6523,0,0.000885,0,0
0:2:34.601,298.298,37.9832,0,0.000885,0,0
0:2:36.302,302.11,38.4659,0,0.000885,0,0
0:2:37.988,305.041,38.8382,0,0.000885,0,0
0:2:39.664,308.738,39.307,0,0.000885,0,0
0:2:41.363,311.905,39.7138,0,0.000885,0,0
0:2:43.051,315.072,40.1137,0,0.000885,0,0
0:2:44.735,318.884,40.6032,0,0.000885,0,0
0:2:46.436,322.051,41.0031,0,0.000885,0,0
0:2:48.121,325.57,41.4513,0,0.000885,0,0
0:2:49.798,328.737,41.8581,0,0.000885,0,0
0:2:51.501,332.313,42.3131,0,0.000885,0,0
0:2:53.183,335.187,42.6785,0,0.000885,0,0
0:2:54.860,338.412,43.0853,0,0.000885,0,0
0:2:56.565,342.108,43.5611,0,0.000885,0,0
0:2:58.246,345.218,43.9541,0,0.000885,0,0
0:2:59.941,347.913,44.2988,0,0.000885,0,0
0:3:1.643,351.61,44.7677,0,0.000885,0,0
0:3:3.337,355.013,45.202,0,0.000885,0,0
0:3:5.039,358.589,45.6571,0,0.000885,0,0
0:3:6.746,361.64,46.0432,0,0.000885,0,0
0:3:8.446,364.923,46.4638,0,0.000885,0,0
0:3:10.140,368.735,46.9464,0,0.000885,0,0
0:3:11.843,371.96,47.3601,0,0.000885,0,0
0:3:13.542,375.127,47.76,0,0.000885,0,0
0:3:15.244,378.472,48.1875,0,0.000885,0,0
0:3:16.942,381.875,48.6218,0,0.000885,0,0
0:3:18.642,385.216,49.0493,0,0.000885,0,0
0:3:20.340,388.677,49.4906,0,0.000885,0,0
0:3:22.039,392.022,49.9111,0,0.000885,0,0
0:3:23.739,394.833,50.2697,0,0.000885,0,0
0:3:25.436,397.885,50.6627,0,0.000885,0,0
0:3:27.139,401.523,51.1246,0,0.000885,0,0
0:3:28.840,405.215,51.5935,0,0.000885,0,0
0:3:30.550,408.854,52.0554,0,0.000885,0,0
0:3:32.240,411.67,52.4139,0,0.000885,0,0
0:3:33.936,415.246,52.869,0,0.000885,0,0
0:3:35.646,418.235,53.2482,0,0.000885,0,0
0:3:37.343,421.696,53.6895,0,0.000885,0,0
0:3:39.047,425.099,54.1238,0,0.000885,0,0
0:3:40.745,428.444,54.5513,0,0.000885,0,0
0:3:42.440,431.727,54.9719,0,0.000885,0,0
0:3:44.146,435.009,55.3856,0,0.000885,0,0
0:3:45.844,438.764,55.8682,0,0.000885,0,0
0:3:47.538,441.522,56.213,0,0.000885,0,0
0:3:49.244,445.098,56.6749,0,0.000885,0,0
0:3:50.951,448.385,57.0886,0,0.000885,0,0
0:3:52.647,452.135,57.5712,0,0.000885,0,0
0:3:54.342,454.951,57.9229,0,0.000885,0,0
0:3:56.043,458.118,58.3296,0,0.000885,0,0
0:3:57.751,462.344,58.8674,0,0.000885,0,0
0:3:59.448,465.275,59.2398,0,0.000885,0,0
0:4:1.150,468.149,59.6052,0,0.000885,0,0
0:4:2.849,472.019,60.1016,0,0.000885,0,0
0:4:4.547,474.719,60.4394,0,0.000885,0,0
0:4:6.248,478.179,60.8807,0,0.000885,0,0
0:4:7.947,481.756,61.3358,0,0.000885,0,0
0:4:9.647,485.216,61.777,0,0.000885,0,0
0:4:11.345,488.032,62.1356,0,0.000885,0,0
0:4:13.046,492.138,62.6596,0,0.000885,0,0
0:4:14.748,495.243,63.0595,0,0.000885,0,0
0:4:16.455,498.824,63.5145,0,0.000885,0,0
0:4:18.146,501.697,63.8799,0,0.000885,0,0
0:4:19.848,505.331,64.3419,0,0.000885,0,0
0:4:21.558,508.498,64.7418,0,0.000885,0,0
0:4:23.249,511.55,65.1348,0,0.000885,0,0
0:4:24.948,515.068,65.5829,0,0.000885,0,0
0:4:26.658,518.996,66.0794,0,0.000885,0,0
0:4:28.340,521.812,66.4379,0,0.000885,0,0
0:4:30.052,525.624,66.9274,0,0.000885,0,0
0:4:31.753,528.382,67.279,0,0.000885,0,0
0:4:33.446,531.958,67.7341,0,0.000885,0,0
0:4:35.147,535.477,68.1823,0,0.000885,0,0
0:4:36.848,538.586,68.5753,0,0.000885,0,0
0:4:38.549,542.047,69.0165,0,0.000885,0,0
0:4:40.251,545.334,69.4371,0,0.000885,0,0
0:4:41.955,548.911,69.8922,0,0.000885,0,0
0:4:43.647,552.251,70.3127,0,0.000885,0,0
0:4:45.356,555.654,70.7471,0,0.000885,0,0
0:4:47.055,558.648,71.1263,0,0.000885,0,0
0:4:48.757,561.93,71.5469,0,0.000885,0,0
0:4:50.448,564.982,71.933,0,0.000885,0,0
0:4:52.150,569.025,72.4501,0,0.000885,0,0
0:4:53.850,572.37,72.8776,0,0.000885,0,0
0:4:55.551,575.008,73.2154,0,0.000885,0,0
0:4:57.254,578.763,73.6912,0,0.000885,0,0
0:4:58.951,582.223,74.1324,0,0.000885,0,0
0:5:0.664,585.39,74.5323,0,0.000885,0,0
0:5:2.364,589.029,74.9943,0,0.000885,0,0
0:5:4.056,592.081,75.3873,0,0.000885,0,0
0:5:5.765,595.426,75.8148,0,0.000885,0,0
0:5:7.469,598.655,76.2215,0,0.000885,0,0
0:5:9.154,602.236,76.6766,0,0.000885,0,0
0:5:10.860,604.7,76.9938,0,0.000885,0,0
0:5:12.566,608.695,77.504,0,0.000885,0,0
0:5:14.250,612.275,77.959,0,0.000885,0,0
0:5:15.965,615.563,78.3727,0,0.000885,0,0
0:5:17.662,619.259,78.8484,0,0.000885,0,0
0:5:19.354,622.017,79.2001,0,0.000885,0,0
0:5:21.069,625.656,79.662,0,0.000885,0,0
0:5:22.767,628.476,80.0206,0,0.000885,0,0
0:5:24.461,632.288,80.5032,0,0.000885,0,0
0:5:26.167,635.402,80.9031,0,0.000885,0,0
0:5:27.863,638.453,81.2892,0,0.000885,0,0
0:5:29.545,641.74,81.7098,0,0.000885,0,0
0:5:31.265,645.793,82.2269,0,0.000885,0,0
0:5:32.961,648.96,82.6268,0,0.000885,0,0
0:5:34.654,651.602,82.9646,0,0.000885,0,0
0:5:36.361,655.241,83.4266,0,0.000885,0,0
0:5:38.054,658.822,83.8816,0,0.000885,0,0
0:5:39.756,661.815,84.2677,0,0.000885,0,0
0:5:41.464,665.805,84.771,0,0.000885,0,0
0:5:43.156,668.683,85.1365,0,0.000885,0,0
0:5:44.861,672.38,85.6122,0,0.000885,0,0
0:5:46.576,675.787,86.0466,0,0.000885,0,0
0:5:48.263,678.839,86.4327,0,0.000885,0,0
0:5:49.959,682.184,86.8602,0,0.000885,0,0
0:5:51.673,685.235,87.2463,0,0.000885,0,0
0:5:53.362,689.461,87.784,0,0.000885,0,0
0:5:55.063,692.045,88.115,0,0.000885,0,0
0:5:56.773,695.626,88.5701,0,0.000885,0,0
0:5:58.462,698.913,88.9906,0,0.000885,0,0
0:6:0.161,702.316,89.425,0,0.000885,0,0
0:6:1.867,705.43,89.818,0,0.000885,0,0
0:6:3.566,709.069,90.28,0,0.000885,0,0
0:6:5.264,712.356,90.7005,0,0.000885,0,0
0:6:6.974,715.585,91.1142,0,0.000885,0,0
0:6:8.663,719.046,91.5486,0,0.000885,0,0
0:6:10.360,722.276,91.9623,0,0.000885,0,0
0:6:12.068,725.856,92.4173,0,0.000885,0,0
0:6:13.765,728.792,92.7896,0,0.000885,0,0
0:6:15.463,732.373,93.2516,0,0.000885,0,0
0:6:17.172,735.66,93.6653,0,0.000885,0,0
0:6:18.868,739.299,94.1272,0,0.000885,0,0
0:6:20.565,742.35,94.5202,0,0.000885,0,0
0:6:22.264,745.816,94.9615,0,0.000885,0,0
0:6:23.959,748.809,95.3407,0,0.000885,0,0
0:6:25.653,752.448,95.8027,0,0.000885,0,0
0:6:27.355,756.202,96.2853,0,0.000885,0,0
0:6:29.061,758.671,96.5955,0,0.000885,0,0
0:6:30.753,762.31,97.0575,0,0.000885,0,0
0:6:32.469,765.89,97.5194,0,0.000885,0,0
0:6:34.151,768.533,97.8504,0,0.000885,0,0
0:6:35.868,772.465,98.3537,0,0.000885,0,0
0:6:37.562,775.516,98.7398,0,0.000885,0,0
0:6:39.268,778.861,99.1673,0,0.000885,0,0
0:6:40.976,778.688,99.1466,0,0.000885,0,0
0:6:42.671,784.791,99.9257,0,0.000885,0,0
0:6:44.368,789.719,100.553,0,0.000885,0,0
0:6:46.077,793.3,101.008,0,0.000885,0,0
0:6:47.775,796.414,101.401,0,0.000885,0,0
0:6:49.469,794.71,101.187,0,0.000885,0,0
0:6:50.974,796.12,101.367,0,0.000885,0,0