Folder: Experiment-Files (part 92)

File: DataFile2021-07-28_093134.csv
Test ID:,Date Tested:,Time:,Test Type:,Diameter Avg. (mm):,Cyl. Corr. Factor:,Height (mm):,Age (days):,Weight (kN):,Break Type:,Ramp Rate (MPa/s):,Load at Break (kN):,Stress at Break (MPa):
12,7/28/2021,09:31,Cylinder,150,1,300,0,13.69,3,0.33,1515.3,85.75
Sample Time,Load (kN),Stress (MPa),Long. Strain,Trans. Strain,Chan1 Deflection (mm),Chan2 Deflection (mm)
0:0:9.975,6.5122,0.365422,0,0.000885,0,0
0:0:11.089,11.1428,0.627423,0,0.000885,0,0
0:0:12.191,18.0064,1.02042,0,0.000885,0,0
0:0:13.286,24.5764,1.39274,0,0.000885,0,0
0:0:14.383,30.8484,1.74437,0,0.000885,0,0
0:0:15.489,37.3606,2.11669,0,0.000885,0,0
0:0:16.601,44.3977,2.50969,0,0.000885,0,0
0:0:17.700,52.1421,2.95096,0,0.000885,0,0
0:0:18.793,60.1177,3.39912,0,0.000885,0,0
0:0:19.887,67.742,3.83349,0,0.000885,0,0
0:0:20.992,73.9561,4.18512,0,0.000885,0,0
0:0:22.103,80.584,4.55743,0,0.000885,0,0
0:0:23.199,87.2118,4.93665,0,0.000885,0,0
0:0:24.292,94.0176,5.32275,0,0.000885,0,0
0:0:25.394,100.703,5.70196,0,0.000885,0,0
0:0:26.506,107.273,6.06739,0,0.000885,0,0
0:0:27.603,114.132,6.46039,0,0.000885,0,0
0:0:28.697,120.525,6.81891,0,0.000885,0,0
0:0:29.791,127.74,7.22571,0,0.000885,0,0
0:0:30.898,134.955,7.63939,0,0.000885,0,0
0:0:32.001,141.173,7.99102,0,0.000885,0,0
0:0:33.095,148.21,8.38402,0,0.000885,0,0
0:0:34.189,155.657,8.8115,0,0.000885,0,0
0:0:35.285,162.169,9.17692,0,0.000885,0,0
0:0:36.397,168.739,9.54924,0,0.000885,0,0
0:0:37.500,176.012,9.96292,0,0.000885,0,0
0:0:38.594,182.755,10.3421,0,0.000885,0,0
0:0:39.688,189.263,10.7076,0,0.000885,0,0
0:0:40.785,196.362,11.1143,0,0.000885,0,0
0:0:41.889,203.106,11.4936,0,0.000885,0,0
0:0:42.986,209.676,11.8659,0,0.000885,0,0
0:0:44.081,216.01,12.2244,0,0.000885,0,0
0:0:45.190,222.874,12.6105,0,0.000885,0,0
0:0:46.295,229.733,13.0035,0,0.000885,0,0
0:0:47.387,236.89,13.4034,0,0.000885,0,0
0:0:48.490,244.043,13.8102,0,0.000885,0,0
0:0:49.575,250.319,14.1618,0,0.000885,0,0
0:0:50.679,256.653,14.5204,0,0.000885,0,0
0:0:51.786,264.046,14.9409,0,0.000885,0,0
0:0:52.881,270.496,15.3064,0,0.000885,0,0
0:0:53.990,277.591,15.7063,0,0.000885,0,0
0:0:55.095,284.219,16.0855,0,0.000885,0,0
0:0:56.196,291.141,16.4785,0,0.000885,0,0
0:0:57.290,297.711,16.8439,0,0.000885,0,0
0:0:58.387,304.748,17.2438,0,0.000885,0,0
0:0:59.486,311.26,17.6161,0,0.000885,0,0
0:1:0.592,318.706,18.0367,0,0.000885,0,0
0:1:1.693,325.04,18.3952,0,0.000885,0,0
0:1:2.790,331.668,18.7675,0,0.000885,0,0
0:1:3.884,338.825,19.1743,0,0.000885,0,0
0:1:4.990,345.978,19.5811,0,0.000885,0,0
0:1:6.095,352.139,19.9258,0,0.000885,0,0
0:1:7.190,359.47,20.3395,0,0.000885,0,0
0:1:8.287,365.977,20.7119,0,0.000885,0,0
0:1:9.395,372.663,21.0911,0,0.000885,0,0
0:1:10.481,379.233,21.4634,0,0.000885,0,0
0:1:11.589,385.861,21.8357,0,0.000885,0,0
0:1:12.688,393.249,22.2563,0,0.000885,0,0
0:1:13.783,399.646,22.6148,0,0.000885,0,0
0:1:14.880,406.683,23.0147,0,0.000885,0,0
0:1:15.988,413.484,23.4008,0,0.000885,0,0
0:1:17.091,420.526,23.7938,0,0.000885,0,0
0:1:18.189,427.737,24.2075,0,0.000885,0,0
0:1:19.282,433.777,24.5453,0,0.000885,0,0
0:1:20.382,440.054,24.9039,0,0.000885,0,0
0:1:21.490,447.384,25.3175,0,0.000885,0,0
0:1:22.589,454.364,25.7105,0,0.000885,0,0
0:1:23.684,461.169,26.0967,0,0.000885,0,0
0:1:24.793,467.913,26.4759,0,0.000885,0,0
0:1:25.900,474.776,26.8689,0,0.000885,0,0
0:1:26.999,481.462,27.2481,0,0.000885,0,0
0:1:28.094,487.854,27.6066,0,0.000885,0,0
0:1:29.191,495.185,28.0203,0,0.000885,0,0
0:1:30.277,502.284,28.4202,0,0.000885,0,0
0:1:31.383,509.321,28.8201,0,0.000885,0,0
0:1:32.498,515.246,29.1579,0,0.000885,0,0
0:1:33.582,521.99,29.5371,0,0.000885,0,0
0:1:34.678,528.56,29.9095,0,0.000885,0,0
0:1:35.779,535.539,30.3025,0,0.000885,0,0
0:1:36.883,542.576,30.7024,0,0.000885,0,0
0:1:37.991,549.907,31.116,0,0.000885,0,0
0:1:39.086,557.002,31.5228,0,0.000885,0,0
0:1:40.195,563.163,31.8676,0,0.000885,0,0
0:1:41.302,569.79,32.2468,0,0.000885,0,0
0:1:42.395,576.183,32.6053,0,0.000885,0,0
0:1:43.491,583.104,32.9983,0,0.000885,0,0
0:1:44.586,589.79,33.3775,0,0.000885,0,0
0:1:45.686,596.484,33.7567,0,0.000885,0,0
0:1:46.797,604.291,34.198,0,0.000885,0,0
0:1:47.888,611.159,34.5841,0,0.000885,0,0
0:1:48.982,617.204,34.9288,0,0.000885,0,0
0:1:50.075,624.072,35.3149,0,0.000885,0,0
0:1:51.200,631.114,35.7148,0,0.000885,0,0
0:1:52.301,637.452,36.0734,0,0.000885,0,0
0:1:53.392,644.383,36.4664,0,0.000885,0,0
0:1:54.496,651.482,36.8663,0,0.000885,0,0
0:1:55.598,658.47,37.2593,0,0.000885,0,0
0:1:56.706,665.338,37.6523,0,0.000885,0,0
0:1:57.799,672.673,38.066,0,0.000885,0,0
0:1:58.899,678.367,38.39,0,0.000885,0,0
0:1:59.988,685.177,38.7761,0,0.000885,0,0
0:2:1.099,691.925,39.1553,0,0.000885,0,0
0:2:2.201,699.616,39.5897,0,0.000885,0,0
0:2:3.295,706.191,39.962,0,0.000885,0,0
0:2:4.386,712.881,40.3412,0,0.000885,0,0
0:2:5.478,719.398,40.7066,0,0.000885,0,0
0:2:6.589,726.444,41.1065,0,0.000885,0,0
0:2:7.695,733.191,41.4926,0,0.000885,0,0
0:2:8.786,739.592,41.8512,0,0.000885,0,0
0:2:9.889,746.34,42.2373,0,0.000885,0,0
0:2:11.004,754.031,42.6717,0,0.000885,0,0
0:2:12.109,760.254,43.0233,0,0.000885,0,0
0:2:13.200,766.887,43.3956,0,0.000885,0,0
0:2:14.289,773.813,43.7886,0,0.000885,0,0
0:2:15.394,780.209,44.154,0,0.000885,0,0
0:2:16.505,786.259,44.4919,0,0.000885,0,0
0:2:17.605,792.949,44.8711,0,0.000885,0,0
0:2:18.697,800.226,45.2848,0,0.000885,0,0
0:2:19.797,806.271,45.6226,0,0.000885,0,0
0:2:20.896,812.966,46.0018,0,0.000885,0,0
0:2:22.004,820.595,46.4362,0,0.000885,0,0
0:2:23.099,827.992,46.8568,0,0.000885,0,0
0:2:24.189,834.451,47.2222,0,0.000885,0,0
0:2:25.292,842.257,47.6635,0,0.000885,0,0
0:2:26.405,849.77,48.084,0,0.000885,0,0
0:2:27.499,856.639,48.477,0,0.000885,0,0
0:2:28.590,863.738,48.8769,0,0.000885,0,0
0:2:29.684,869.903,49.2286,0,0.000885,0,0
0:2:30.789,876.887,49.6216,0,0.000885,0,0
0:2:31.892,883.288,49.987,0,0.000885,0,0
0:2:32.996,889.627,50.3455,0,0.000885,0,0
0:2:34.086,896.317,50.7178,0,0.000885,0,0
0:2:35.189,902.775,51.0833,0,0.000885,0,0
0:2:36.303,910.582,51.5314,0,0.000885,0,0
0:2:37.402,917.45,51.9175,0,0.000885,0,0
0:2:38.491,924.376,52.3105,0,0.000885,0,0
0:2:39.583,930.893,52.6759,0,0.000885,0,0
0:2:40.691,937.583,53.0552,0,0.000885,0,0
0:2:41.802,943.979,53.4206,0,0.000885,0,0
0:2:42.893,950.087,53.7653,0,0.000885,0,0
0:2:43.998,957.6,54.1859,0,0.000885,0,0
0:2:45.100,965.171,54.6203,0,0.000885,0,0
0:2:46.208,972.039,55.0064,0,0.000885,0,0
0:2:47.309,978.377,55.3649,0,0.000885,0,0
0:2:48.403,984.543,55.7165,0,0.000885,0,0
0:2:49.494,991.469,56.1026,0,0.000885,0,0
0:2:50.599,998.394,56.4956,0,0.000885,0,0
0:2:51.711,1004.97,56.868,0,0.000885,0,0
0:2:52.805,1012.66,57.3023,0,0.000885,0,0
0:2:53.894,1019.35,57.6815,0,0.000885,0,0
0:2:54.990,1026.34,58.0814,0,0.000885,0,0
0:2:56.104,1032.56,58.4331,0,0.000885,0,0
0:2:57.211,1039.31,58.8123,0,0.000885,0,0
0:2:58.302,1045.88,59.1846,0,0.000885,0,0
0:2:59.391,1052.93,59.5845,0,0.000885,0,0
0:3:0.493,1059.03,59.9292,0,0.000885,0,0
0:3:1.602,1066.66,60.3636,0,0.000885,0,0
0:3:2.693,1073.77,60.7635,0,0.000885,0,0
0:3:3.787,1080.34,61.1358,0,0.000885,0,0
0:3:4.889,1086.68,61.4943,0,0.000885,0,0
0:3:5.994,1093.31,61.8667,0,0.000885,0,0
0:3:7.096,1100.53,62.2803,0,0.000885,0,0
0:3:8.195,1107.28,62.6596,0,0.000885,0,0
0:3:9.300,1115.03,63.1008,0,0.000885,0,0
0:3:10.403,1121.66,63.4731,0,0.000885,0,0
0:3:11.512,1128.12,63.8386,0,0.000885,0,0
0:3:12.612,1134.52,64.204,0,0.000885,0,0
0:3:13.705,1141.33,64.5832,0,0.000885,0,0
0:3:14.794,1147.9,64.9555,0,0.000885,0,0
0:3:15.901,1154.59,65.3347,0,0.000885,0,0
0:3:17.001,1160.87,65.6932,0,0.000885,0,0
0:3:18.093,1168.97,66.1483,0,0.000885,0,0
0:3:19.195,1175.55,66.5206,0,0.000885,0,0
0:3:20.288,1182.3,66.9067,0,0.000885,0,0
0:3:21.402,1189.11,67.2928,0,0.000885,0,0
0:3:22.497,1195.92,67.672,0,0.000885,0,0
0:3:23.597,1202.55,68.0513,0,0.000885,0,0
0:3:24.687,1209.01,68.4167,0,0.000885,0,0
0:3:25.788,1216.05,68.8166,0,0.000885,0,0
0:3:26.898,1222.92,69.2027,0,0.000885,0,0
0:3:28.004,1228.97,69.5474,0,0.000885,0,0
0:3:29.094,1235.66,69.9266,0,0.000885,0,0
0:3:30.186,1243.11,70.3472,0,0.000885,0,0
0:3:31.291,1250.27,70.754,0,0.000885,0,0
0:3:32.399,1257.67,71.1677,0,0.000885,0,0
0:3:33.503,1264.54,71.5607,0,0.000885,0,0
0:3:34.596,1270.99,71.9261,0,0.000885,0,0
0:3:35.698,1278.04,72.3191,0,0.000885,0,0
0:3:36.806,1284.61,72.6914,0,0.000885,0,0
0:3:37.896,1291.07,73.0568,0,0.000885,0,0
0:3:38.996,1298.05,73.4567,0,0.000885,0,0
0:3:40.106,1304.63,73.8291,0,0.000885,0,0
0:3:41.215,1311.03,74.1876,0,0.000885,0,0
0:3:42.314,1318.31,74.6013,0,0.000885,0,0
0:3:43.408,1325.65,75.015,0,0.000885,0,0
0:3:44.498,1331.86,75.3666,0,0.000885,0,0
0:3:45.592,1339.15,75.7803,0,0.000885,0,0
0:3:46.700,1345.72,76.1526,0,0.000885,0,0
0:3:47.806,1352.59,76.5387,0,0.000885,0,0
0:3:48.898,1359.04,76.9041,0,0.000885,0,0
0:3:49.989,1365.91,77.2971,0,0.000885,0,0
0:3:51.100,1372.31,77.6557,0,0.000885,0,0
0:3:52.198,1379.88,78.0831,0,0.000885,0,0
0:3:53.291,1386.81,78.4761,0,0.000885,0,0
0:3:54.381,1393.15,78.8347,0,0.000885,0,0
0:3:55.477,1399.84,79.2139,0,0.000885,0,0
0:3:56.587,1406.24,79.5793,0,0.000885,0,0
0:3:57.691,1413.34,79.9792,0,0.000885,0,0
0:3:58.784,1419.62,80.3308,0,0.000885,0,0
0:3:59.880,1426.31,80.71,0,0.000885,0,0
0:4:0.981,1433.77,81.1375,0,0.000885,0,0
0:4:2.089,1440.81,81.5305,0,0.000885,0,0
0:4:3.198,1447.68,81.9235,0,0.000885,0,0
0:4:4.300,1453.43,82.2476,0,0.000885,0,0
0:4:5.402,1460.88,82.6681,0,0.000885,0,0
0:4:6.513,1465.7,82.9439,0,0.000885,0,0
0:4:7.613,1473.22,83.3645,0,0.000885,0,0
0:4:8.707,1480.8,83.7989,0,0.000885,0,0
0:4:9.796,1486.04,84.0954,0,0.000885,0,0
0:4:10.906,1493.51,84.5159,0,0.000885,0,0
0:4:12.006,1501.17,84.9503,0,0.000885,0,0
0:4:13.109,1507.94,85.3295,0,0.000885,0,0
0:4:14.199,1507.17,85.2881,0,0.000885,0,0
0:4:15.300,1503.64,85.0882,0,0.000885,0,0
0:4:16.409,1502.7,85.033,0,0.000885,0,0
0:4:17.502,1506.41,85.2468,0,0.000885,0,0
0:4:18.599,1510.95,85.5019,0,0.000885,0,0
0:4:19.699,1513.42,85.6398,0,0.000885,0,0
0:4:20.810,1512.12,85.5708,0,0.000885,0,0
0:4:21.915,1503.53,85.0813,0,0.000885,0,0
0:4:23.003,1497.93,84.7641,0,0.000885,0,0
0:4:24.102,1296.88,73.3878,0,0.000885,0,0
0:4:24.249,1078.17,61.0117,0,0.000885,0,0

File: DataFile2021-07-28_093856.csv
Test ID:,Date Tested:,Time:,Test Type:,Diameter Avg. (mm):,Cyl. Corr. Factor:,Height (mm):,Age (days):,Weight (kN):,Break Type:,Ramp Rate (MPa/s):,Load at Break (kN):,Stress at Break (MPa):
12,7/28/2021,09:38,Cylinder,150,1,300,0,13.69,3,0.3,1132.94,64.11
Sample Time,Load (kN),Stress (MPa),Long. Strain,Trans. Strain,Chan1 Deflection (mm),Chan2 Deflection (mm)
0:0:6.004,5.04428,0.282685,0,0.000885,0,0
0:0:6.906,10.5556,0.599844,0,0.000885,0,0
0:0:7.804,15.3686,0.868739,0,0.000885,0,0
0:0:8.701,21.347,1.20658,0,0.000885,0,0
0:0:9.619,26.3913,1.49616,0,0.000885,0,0
0:0:10.513,32.0227,1.81332,0,0.000885,0,0
0:0:11.424,38.4727,2.17874,0,0.000885,0,0
0:0:12.336,45.8656,2.59243,0,0.000885,0,0
0:0:13.240,52.6091,2.97854,0,0.000885,0,0
0:0:14.133,57.0662,3.22675,0,0.000885,0,0
0:0:15.028,61.5234,3.48185,0,0.000885,0,0
0:0:15.928,66.452,3.75764,0,0.000885,0,0
0:0:16.831,72.6661,4.10928,0,0.000885,0,0
0:0:17.741,78.4755,4.44022,0,0.000885,0,0
0:0:18.635,83.929,4.75049,0,0.000885,0,0
0:0:19.534,89.3247,5.05386,0,0.000885,0,0
0:0:20.431,95.8369,5.42617,0,0.000885,0,0
0:0:21.324,100.703,5.70196,0,0.000885,0,0
0:0:22.236,105.983,5.99844,0,0.000885,0,0
0:0:23.145,111.673,6.32249,0,0.000885,0,0
0:0:24.039,116.948,6.61897,0,0.000885,0,0
0:0:24.932,123.225,6.9706,0,0.000885,0,0
0:0:25.830,128.914,7.29465,0,0.000885,0,0
0:0:26.738,133.9,7.57734,0,0.000885,0,0
0:0:27.647,139.821,7.91518,0,0.000885,0,0
0:0:28.541,145.862,8.25302,0,0.000885,0,0
0:0:29.438,149.794,8.47366,0,0.000885,0,0
0:0:30.335,155.835,8.81839,0,0.000885,0,0
0:0:31.231,162.578,9.19761,0,0.000885,0,0
0:0:32.143,167.329,9.4665,0,0.000885,0,0
0:0:33.048,173.138,9.79745,0,0.000885,0,0
0:0:33.946,179.294,10.1491,0,0.000885,0,0
0:0:34.843,184.161,10.4249,0,0.000885,0,0
0:0:35.736,189.85,10.742,0,0.000885,0,0
0:0:36.635,195.891,11.0868,0,0.000885,0,0
0:0:37.540,200.584,11.3488,0,0.000885,0,0
0:0:38.434,206.567,11.6866,0,0.000885,0,0
0:0:39.321,211.317,11.9555,0,0.000885,0,0
0:0:40.221,217.536,12.3071,0,0.000885,0,0
0:0:41.112,223.341,12.6381,0,0.000885,0,0
0:0:42.009,228.621,12.9346,0,0.000885,0,0
0:0:42.911,234.31,13.2586,0,0.000885,0,0
0:0:43.812,240.115,13.5896,0,0.000885,0,0
0:0:44.716,244.808,13.8516,0,0.000885,0,0
0:0:45.603,250.964,14.2032,0,0.000885,0,0
0:0:46.506,256.596,14.5204,0,0.000885,0,0
0:0:47.409,261.756,14.8099,0,0.000885,0,0
0:0:48.305,267.738,15.1478,0,0.000885,0,0
0:0:49.203,273.779,15.4925,0,0.000885,0,0
0:0:50.110,278.356,15.7545,0,0.000885,0,0
0:0:51.004,284.339,16.0924,0,0.000885,0,0
0:0:51.904,289.263,16.3682,0,0.000885,0,0
0:0:52.804,295.304,16.7129,0,0.000885,0,0
0:0:53.694,301.287,17.0507,0,0.000885,0,0
0:0:54.585,306.158,17.3265,0,0.000885,0,0
0:0:55.475,311.26,17.6161,0,0.000885,0,0
0:0:56.362,316.829,17.9264,0,0.000885,0,0
0:0:57.268,322.754,18.2642,0,0.000885,0,0
0:0:58.169,329.146,18.6227,0,0.000885,0,0
0:0:59.056,333.897,18.8916,0,0.000885,0,0
0:0:59.942,339.88,19.2364,0,0.000885,0,0
0:1:0.831,344.924,19.5191,0,0.000885,0,0
0:1:1.735,349.733,19.788,0,0.000885,0,0
0:1:2.639,355.773,20.1327,0,0.000885,0,0
0:1:3.528,360.995,20.4292,0,0.000885,0,0
0:1:4.419,367.388,20.7877,0,0.000885,0,0
0:1:5.320,373.664,21.1462,0,0.000885,0,0
0:1:6.227,378.063,21.3944,0,0.000885,0,0
0:1:7.132,383.868,21.7254,0,0.000885,0,0
0:1:8.030,389.967,22.0701,0,0.000885,0,0
0:1:8.923,394.717,22.339,0,0.000885,0,0
0:1:9.809,400.171,22.6424,0,0.000885,0,0
0:1:10.715,406.154,22.9802,0,0.000885,0,0
0:1:11.623,411.963,23.3112,0,0.000885,0,0
0:1:12.526,417.884,23.649,0,0.000885,0,0
0:1:13.423,423.631,23.9731,0,0.000885,0,0
0:1:14.319,428.559,24.2489,0,0.000885,0,0
0:1:15.220,433.955,24.5591,0,0.000885,0,0
0:1:16.119,438.648,24.8211,0,0.000885,0,0
0:1:17.025,444.511,25.1521,0,0.000885,0,0
0:1:17.916,450.965,25.5175,0,0.000885,0,0
0:1:18.820,455.716,25.7864,0,0.000885,0,0
0:1:19.721,462.108,26.1518,0,0.000885,0,0
0:1:20.619,467.388,26.4483,0,0.000885,0,0
0:1:21.512,472.428,26.731,0,0.000885,0,0
0:1:22.415,478.469,27.0757,0,0.000885,0,0
0:1:23.310,484.514,27.4204,0,0.000885,0,0
0:1:24.219,489.909,27.7238,0,0.000885,0,0
0:1:25.126,494.891,28.0065,0,0.000885,0,0
0:1:26.015,500.874,28.3443,0,0.000885,0,0
0:1:26.927,505.625,28.6132,0,0.000885,0,0
0:1:27.829,511.786,28.958,0,0.000885,0,0
0:1:28.715,518.12,29.3165,0,0.000885,0,0
0:1:29.617,522.871,29.5854,0,0.000885,0,0
0:1:30.508,528.676,29.9164,0,0.000885,0,0
0:1:31.404,533.426,30.1852,0,0.000885,0,0
0:1:32.311,539.645,30.5369,0,0.000885,0,0
0:1:33.211,545.098,30.8471,0,0.000885,0,0
0:1:34.101,550.552,31.1574,0,0.000885,0,0
0:1:34.990,555.948,31.4608,0,0.000885,0,0
0:1:35.879,562.46,31.8262,0,0.000885,0,0
0:1:36.783,567.148,32.0951,0,0.000885,0,0
0:1:37.685,573.015,32.426,0,0.000885,0,0
0:1:38.572,578.06,32.7087,0,0.000885,0,0
0:1:39.464,583.749,33.0328,0,0.000885,0,0
0:1:40.355,589.558,33.3637,0,0.000885,0,0
0:1:41.249,594.429,33.6395,0,0.000885,0,0
0:1:42.162,600.652,33.9912,0,0.000885,0,0
0:1:43.062,606.933,34.3428,0,0.000885,0,0
0:1:43.960,611.746,34.6186,0,0.000885,0,0
0:1:44.853,617.204,34.9288,0,0.000885,0,0
0:1:45.748,622.546,35.2322,0,0.000885,0,0
0:1:46.648,628.182,35.5494,0,0.000885,0,0
0:1:47.557,633.992,35.8734,0,0.000885,0,0
0:1:48.457,639.921,36.2113,0,0.000885,0,0
0:1:49.352,645.028,36.5008,0,0.000885,0,0
0:1:50.244,650.428,36.8042,0,0.000885,0,0
0:1:51.139,656.064,37.1283,0,0.000885,0,0
0:1:52.049,661.344,37.4247,0,0.000885,0,0
0:1:52.955,667.393,37.7695,0,0.000885,0,0
0:1:53.848,672.38,38.0522,0,0.000885,0,0
0:1:54.741,678.131,38.3762,0,0.000885,0,0
0:1:55.639,684.412,38.7279,0,0.000885,0,0
0:1:56.544,689.11,38.9967,0,0.000885,0,0
0:1:57.450,694.981,39.3277,0,0.000885,0,0
0:1:58.343,700.791,39.6586,0,0.000885,0,0
0:1:59.239,705.782,39.9413,0,0.000885,0,0
0:2:0.136,711.591,40.2654,0,0.000885,0,0
0:2:1.029,716.818,40.5619,0,0.000885,0,0
0:2:1.939,722.863,40.9066,0,0.000885,0,0
0:2:2.840,728.966,41.2513,0,0.000885,0,0
0:2:3.735,734.072,41.5409,0,0.000885,0,0
0:2:4.631,739.299,41.8374,0,0.000885,0,0
0:2:5.520,745.638,42.1959,0,0.000885,0,0
0:2:6.432,750.215,42.451,0,0.000885,0,0
0:2:7.341,755.735,42.7682,0,0.000885,0,0
0:2:8.241,762.189,43.1336,0,0.000885,0,0
0:2:9.133,767.416,43.4301,0,0.000885,0,0
0:2:10.025,772.465,43.7128,0,0.000885,0,0
0:2:10.919,778.159,44.0368,0,0.000885,0,0
0:2:11.828,784.084,44.3678,0,0.000885,0,0
0:2:12.735,789.955,44.7056,0,0.000885,0,0
0:2:13.626,795.471,45.0159,0,0.000885,0,0
0:2:14.519,800.462,45.2986,0,0.000885,0,0
0:2:15.414,805.982,45.6088,0,0.000885,0,0
0:2:16.308,811.147,45.8984,0,0.000885,0,0
0:2:17.214,817.543,46.2638,0,0.000885,0,0
0:2:18.129,822.707,46.5534,0,0.000885,0,0
0:2:19.025,827.992,46.8568,0,0.000885,0,0
0:2:19.917,833.45,47.167,0,0.000885,0,0
0:2:20.808,840.26,47.5462,0,0.000885,0,0
0:2:21.718,844.664,47.8014,0,0.000885,0,0
0:2:22.626,850.473,48.1254,0,0.000885,0,0
0:2:23.519,856.518,48.4701,0,0.000885,0,0
0:2:24.433,861.567,48.7528,0,0.000885,0,0
0:2:25.322,867.203,49.0769,0,0.000885,0,0
0:2:26.221,873.248,49.4147,0,0.000885,0,0
0:2:27.134,878.181,49.6974,0,0.000885,0,0
0:2:28.034,883.933,50.0215,0,0.000885,0,0
0:2:28.926,889.275,50.3248,0,0.000885,0,0
0:2:29.818,895.498,50.6765,0,0.000885,0,0
0:2:30.726,900.72,50.9729,0,0.000885,0,0
0:2:31.631,906.121,51.2763,0,0.000885,0,0
0:2:32.538,911.521,51.5797,0,0.000885,0,0
0:2:33.431,917.628,51.9244,0,0.000885,0,0
0:2:34.328,923.437,52.2554,0,0.000885,0,0
0:2:35.232,928.366,52.5381,0,0.000885,0,0
0:2:36.124,934.18,52.8621,0,0.000885,0,0
0:2:37.035,940.283,53.2068,0,0.000885,0,0
0:2:37.936,945.51,53.5033,0,0.000885,0,0
0:2:38.831,950.91,53.8136,0,0.000885,0,0
0:2:39.727,955.603,54.0756,0,0.000885,0,0
0:2:40.617,961.59,54.4134,0,0.000885,0,0
0:2:41.520,967.871,54.772,0,0.000885,0,0
0:2:42.429,972.452,55.0271,0,0.000885,0,0
0:2:43.328,978.026,55.3442,0,0.000885,0,0
0:2:44.217,984.071,55.689,0,0.000885,0,0
0:2:45.109,988.946,55.9647,0,0.000885,0,0
0:2:46.004,994.814,56.2957,0,0.000885,0,0
0:2:46.907,1000.92,56.6404,0,0.000885,0,0
0:2:47.813,1006.56,56.9576,0,0.000885,0,0
0:2:48.729,1011.96,57.2679,0,0.000885,0,0
0:2:49.624,1017.59,57.585,0,0.000885,0,0
0:2:50.519,1022.64,57.8677,0,0.000885,0,0
0:2:51.420,1028.39,58.1918,0,0.000885,0,0
0:2:52.329,1034.26,58.5296,0,0.000885,0,0
0:2:53.236,1038.43,58.764,0,0.000885,0,0
0:2:54.133,1044.71,59.1156,0,0.000885,0,0
0:2:55.022,1051.11,59.4811,0,0.000885,0,0
0:2:55.914,1055.69,59.7431,0,0.000885,0,0
0:2:56.824,1061.5,60.0671,0,0.000885,0,0
0:2:57.734,1067.07,60.3843,0,0.000885,0,0
0:2:58.635,1072,60.6601,0,0.000885,0,0
0:2:59.525,1077.76,60.991,0,0.000885,0,0
0:3:0.432,1082.98,61.2875,0,0.000885,0,0
0:3:1.336,1087.56,61.5426,0,0.000885,0,0
0:3:2.245,1093.49,61.8804,0,0.000885,0,0
0:3:3.146,1099.07,62.1976,0,0.000885,0,0
0:3:4.042,1103.53,62.4458,0,0.000885,0,0
0:3:4.940,1108.75,62.7423,0,0.000885,0,0
0:3:5.831,1112.04,62.9284,0,0.000885,0,0
0:3:6.742,1115.27,63.1077,0,0.000885,0,0
0:3:7.644,1118.26,63.2801,0,0.000885,0,0
0:3:8.540,1120.14,63.3835,0,0.000885,0,0
0:3:9.432,1121.96,63.4869,0,0.000885,0,0
0:3:10.333,1124.72,63.6455,0,0.000885,0,0
0:3:11.233,1126.65,63.7558,0,0.000885,0,0
0:3:12.143,1128.47,63.8592,0,0.000885,0,0
0:3:13.042,1130.18,63.9558,0,0.000885,0,0
0:3:13.932,1132.05,64.0592,0,0.000885,0,0
0:3:14.836,1132.46,64.0868,0,0.000885,0,0
0:3:15.727,1133.05,64.1143,0,0.000885,0,0
0:3:16.626,1132.99,64.1143,0,0.000885,0,0
0:3:17.532,1132.7,64.1006,0,0.000885,0,0
0:3:18.425,1132.46,64.0868,0,0.000885,0,0
0:3:19.315,1132.88,64.1075,0,0.000885,0,0
0:3:20.204,1132.94,64.1143,0,0.000885,0,0
0:3:21.096,1131.7,64.0385,0,0.000885,0,0
0:3:22.001,1130.18,63.9558,0,0.000885,0,0
0:3:22.905,1127.24,63.7903,0,0.000885,0,0
0:3:23.794,1125.36,63.68,0,0.000885,0,0
0:3:24.685,1124.36,63.6248,0,0.000885,0,0
0:3:25.580,1124.01,63.6041,0,0.000885,0,0
0:3:26.482,1122.84,63.5421,0,0.000885,0,0
0:3:27.385,1122.54,63.5214,0,0.000885,0,0
0:3:28.278,1122.9,63.5421,0,0.000885,0,0
0:3:29.171,1123.66,63.5835,0,0.000885,0,0
0:3:30.060,1124.54,63.6386,0,0.000885,0,0
0:3:30.949,1124.25,63.6179,0,0.000885,0,0
0:3:31.856,1125.54,63.6938,0,0.000885,0,0
0:3:32.761,1125.42,63.6869,0,0.000885,0,0
0:3:33.650,1126.95,63.7696,0,0.000885,0,0
0:3:34.538,1119.79,63.3697,0,0.000885,0,0
0:3:35.430,1119.49,63.349,0,0.000885,0,0
0:3:36.333,1099.65,62.2252,0,0.000885,0,0
0:3:37.238,1032.97,58.4538,0,0.000885,0,0
0:3:38.135,868.787,49.1665,0,0.000885,0,0
0:3:38.446,824.233,46.643,0,0.000885,0,0