Folder: Experiment-Files (part 16)

File: DataFile2021-06-07_065958.csv
Test ID:,Date Tested:,Time:,Test Type:,Diameter Avg. (mm):,Cyl. Corr. Factor:,Height (mm):,Age (days):,Weight (kN):,Break Type:,Ramp Rate (MPa/s):,Load at Break (kN):,Stress at Break (MPa):
12,6/7/2021,06:59,Cylinder,100,1,200,0,3.6,3,0.24,377.48,48.06
Sample Time,Load (kN),Stress (MPa),Long. Strain,Trans. Strain,Chan1 Deflection (mm),Chan2 Deflection (mm)
0:0:21.042,7.27284,0.923897,0,0.000885,0,0
0:0:21.944,12.4328,1.58579,0,0.000885,0,0
0:0:22.848,11.4942,1.46169,0,0.000885,0,0
0:0:23.751,10.8492,1.37895,0,0.000885,0,0
0:0:24.639,12.3171,1.56511,0,0.000885,0,0
0:0:25.551,13.1979,1.68232,0,0.000885,0,0
0:0:26.450,14.7192,1.87537,0,0.000885,0,0
0:0:27.360,17.1835,2.18564,0,0.000885,0,0
0:0:28.263,19.7056,2.50969,0,0.000885,0,0
0:0:29.156,21.6406,2.7579,0,0.000885,0,0
0:0:30.052,22.9306,2.91648,0,0.000885,0,0
0:0:30.950,24.3407,3.09575,0,0.000885,0,0
0:0:31.853,26.5692,3.38533,0,0.000885,0,0
0:0:32.761,28.6821,3.65422,0,0.000885,0,0
0:0:33.658,29.852,3.79901,0,0.000885,0,0
0:0:34.556,31.6135,4.02654,0,0.000885,0,0
0:0:35.450,33.5485,4.27475,0,0.000885,0,0
0:0:36.344,35.6614,4.54365,0,0.000885,0,0
0:0:37.254,36.9514,4.70222,0,0.000885,0,0
0:0:38.164,38.9442,4.95733,0,0.000885,0,0
0:0:39.057,40.937,5.21244,0,0.000885,0,0
0:0:39.953,42.5784,5.41928,0,0.000885,0,0
0:0:40.850,44.1619,5.62612,0,0.000885,0,0
0:0:41.760,45.9813,5.85365,0,0.000885,0,0
0:0:42.668,47.507,6.0467,0,0.000885,0,0
0:0:43.565,49.2062,6.26733,0,0.000885,0,0
0:0:44.458,51.2613,6.52934,0,0.000885,0,0
0:0:45.357,52.5513,6.68791,0,0.000885,0,0
0:0:46.254,54.6019,6.94992,0,0.000885,0,0
0:0:47.166,56.657,7.21192,0,0.000885,0,0
0:0:48.069,58.2984,7.42565,0,0.000885,0,0
0:0:48.968,59.9976,7.63939,0,0.000885,0,0
0:0:49.863,61.6435,7.84623,0,0.000885,0,0
0:0:50.755,63.2848,8.05997,0,0.000885,0,0
0:0:51.657,65.4556,8.33576,0,0.000885,0,0
0:0:52.566,66.9769,8.52881,0,0.000885,0,0
0:0:53.469,68.7962,8.75634,0,0.000885,0,0
0:0:54.364,70.7312,9.00455,0,0.000885,0,0
0:0:55.258,72.2569,9.19761,0,0.000885,0,0
0:0:56.156,74.4855,9.48719,0,0.000885,0,0
0:0:57.063,75.424,9.6044,0,0.000885,0,0
0:0:57.971,78.1241,9.94913,0,0.000885,0,0
0:0:58.866,80.1747,10.2111,0,0.000885,0,0
0:0:59.764,81.1711,10.3352,0,0.000885,0,0
0:1:0.661,82.9905,10.5697,0,0.000885,0,0
0:1:1.561,84.6897,10.7834,0,0.000885,0,0
0:1:2.470,86.509,11.0178,0,0.000885,0,0
0:1:3.369,88.2705,11.2385,0,0.000885,0,0
0:1:4.264,90.0854,11.4729,0,0.000885,0,0
0:1:5.158,92.0248,11.7142,0,0.000885,0,0
0:1:6.055,93.8975,11.9555,0,0.000885,0,0
0:1:6.963,94.9562,12.0934,0,0.000885,0,0
0:1:7.868,97.5362,12.4175,0,0.000885,0,0
0:1:8.760,98.5904,12.5554,0,0.000885,0,0
0:1:9.656,100.761,12.8311,0,0.000885,0,0
0:1:10.554,102.287,13.0242,0,0.000885,0,0
0:1:11.458,104.573,13.3138,0,0.000885,0,0
0:1:12.369,106.393,13.5482,0,0.000885,0,0
0:1:13.271,107.976,13.7481,0,0.000885,0,0
0:1:14.169,109.618,13.955,0,0.000885,0,0
0:1:15.063,110.734,14.0998,0,0.000885,0,0
0:1:15.956,112.491,14.3204,0,0.000885,0,0
0:1:16.859,114.777,14.6169,0,0.000885,0,0
0:1:17.769,116.712,14.8582,0,0.000885,0,0
0:1:18.669,117.945,15.0168,0,0.000885,0,0
0:1:19.561,120.409,15.3339,0,0.000885,0,0
0:1:20.456,121.463,15.4649,0,0.000885,0,0
0:1:21.356,123.812,15.7614,0,0.000885,0,0
0:1:22.270,125.747,16.0096,0,0.000885,0,0
0:1:23.168,126.743,16.1406,0,0.000885,0,0
0:1:24.064,129.092,16.4371,0,0.000885,0,0
0:1:24.962,131.085,16.6922,0,0.000885,0,0
0:1:25.855,132.081,16.8163,0,0.000885,0,0
0:1:26.759,134.719,17.1542,0,0.000885,0,0
0:1:27.667,136.596,17.3955,0,0.000885,0,0
0:1:28.568,137.712,17.5334,0,0.000885,0,0
0:1:29.463,139.354,17.7402,0,0.000885,0,0
0:1:30.355,141.582,18.0298,0,0.000885,0,0
0:1:31.251,142.988,18.2091,0,0.000885,0,0
0:1:32.162,144.634,18.4159,0,0.000885,0,0
0:1:33.070,146.569,18.6641,0,0.000885,0,0
0:1:33.963,148.384,18.8916,0,0.000885,0,0
0:1:34.859,150.612,19.1743,0,0.000885,0,0
0:1:35.757,152.138,19.3743,0,0.000885,0,0
0:1:36.660,153.49,19.5397,0,0.000885,0,0
0:1:37.568,155.483,19.7948,0,0.000885,0,0
0:1:38.465,157.067,20.0017,0,0.000885,0,0
0:1:39.364,158.944,20.2361,0,0.000885,0,0
0:1:40.257,160.821,20.4774,0,0.000885,0,0
0:1:41.150,162.756,20.7256,0,0.000885,0,0
0:1:42.062,164.162,20.9049,0,0.000885,0,0
0:1:42.969,166.217,21.16,0,0.000885,0,0
0:1:43.861,167.916,21.3806,0,0.000885,0,0
0:1:44.755,169.442,21.5737,0,0.000885,0,0
0:1:45.653,171.492,21.8357,0,0.000885,0,0
0:1:46.559,172.845,22.0081,0,0.000885,0,0
0:1:47.471,174.602,22.2287,0,0.000885,0,0
0:1:48.373,176.772,22.5045,0,0.000885,0,0
0:1:49.268,179.059,22.801,0,0.000885,0,0
0:1:50.166,179.882,22.9044,0,0.000885,0,0
0:1:51.062,182.168,23.194,0,0.000885,0,0
0:1:51.962,183.516,23.3663,0,0.000885,0,0
0:1:52.872,185.513,23.6214,0,0.000885,0,0
0:1:53.772,186.452,23.7386,0,0.000885,0,0
0:1:54.670,189.325,24.1041,0,0.000885,0,0
0:1:55.562,190.909,24.304,0,0.000885,0,0
0:1:56.465,192.43,24.504,0,0.000885,0,0
0:1:57.368,193.956,24.697,0,0.000885,0,0
0:1:58.265,196.598,25.0349,0,0.000885,0,0
0:1:59.153,197.946,25.2003,0,0.000885,0,0
0:2:0.045,200.41,25.5175,0,0.000885,0,0
0:2:0.954,201.171,25.614,0,0.000885,0,0
0:2:1.858,202.754,25.814,0,0.000885,0,0
0:2:2.760,204.396,26.0277,0,0.000885,0,0
0:2:3.647,207.212,26.3862,0,0.000885,0,0
0:2:4.544,207.741,26.4483,0,0.000885,0,0
0:2:5.446,210.027,26.7448,0,0.000885,0,0
0:2:6.359,212.665,27.0757,0,0.000885,0,0
0:2:7.262,213.194,27.1447,0,0.000885,0,0
0:2:8.157,215.423,27.4273,0,0.000885,0,0
0:2:9.045,217.242,27.6618,0,0.000885,0,0
0:2:9.937,218.826,27.8617,0,0.000885,0,0
0:2:10.823,221.521,28.2065,0,0.000885,0,0
0:2:11.720,223.519,28.4616,0,0.000885,0,0
0:2:12.621,224.457,28.5788,0,0.000885,0,0
0:2:13.517,226.041,28.7787,0,0.000885,0,0
0:2:14.403,227.562,28.9718,0,0.000885,0,0
0:2:15.290,228.679,29.1166,0,0.000885,0,0
0:2:16.182,231.316,29.4544,0,0.000885,0,0
0:2:17.081,233.665,29.7509,0,0.000885,0,0
0:2:17.982,234.604,29.8681,0,0.000885,0,0
0:2:18.870,236.187,30.0749,0,0.000885,0,0
0:2:19.762,238.122,30.3162,0,0.000885,0,0
0:2:20.649,239.586,30.5024,0,0.000885,0,0
0:2:21.546,241.992,30.8127,0,0.000885,0,0
0:2:22.447,243.869,31.0471,0,0.000885,0,0
0:2:23.349,245.453,31.2539,0,0.000885,0,0
0:2:24.245,247.446,31.509,0,0.000885,0,0
0:2:25.163,247.917,31.5642,0,0.000885,0,0
0:2:26.061,250.849,31.9365,0,0.000885,0,0
0:2:26.964,252.668,32.1709,0,0.000885,0,0
0:2:27.864,254.954,32.4605,0,0.000885,0,0
0:2:28.759,256.244,32.626,0,0.000885,0,0
0:2:29.656,257.712,32.8121,0,0.000885,0,0
0:2:30.557,259.585,33.0535,0,0.000885,0,0
0:2:31.455,261.168,33.2534,0,0.000885,0,0
0:2:32.362,263.339,33.5292,0,0.000885,0,0
0:2:33.257,264.513,33.6809,0,0.000885,0,0
0:2:34.144,266.448,33.9222,0,0.000885,0,0
0:2:35.032,268.09,34.1359,0,0.000885,0,0
0:2:35.917,269.736,34.3428,0,0.000885,0,0
0:2:36.822,272.431,34.6875,0,0.000885,0,0
0:2:37.722,273.254,34.7909,0,0.000885,0,0
0:2:38.611,275.714,35.1081,0,0.000885,0,0
0:2:39.497,276.715,35.2322,0,0.000885,0,0
0:2:40.387,278.414,35.4459,0,0.000885,0,0
0:2:41.276,281.11,35.7907,0,0.000885,0,0
0:2:42.183,281.697,35.8665,0,0.000885,0,0
0:2:43.076,284.161,36.1837,0,0.000885,0,0
0:2:43.968,285.923,36.4043,0,0.000885,0,0
0:2:44.853,287.213,36.5698,0,0.000885,0,0
0:2:45.762,289.557,36.8663,0,0.000885,0,0
0:2:46.666,291.67,37.1352,0,0.000885,0,0
0:2:47.570,292.666,37.2662,0,0.000885,0,0
0:2:48.467,294.486,37.4937,0,0.000885,0,0
0:2:49.363,296.536,37.7557,0,0.000885,0,0
0:2:50.260,298.178,37.9625,0,0.000885,0,0
0:2:51.149,300.233,38.2245,0,0.000885,0,0
0:2:52.054,302.226,38.4796,0,0.000885,0,0
0:2:52.948,303.28,38.6175,0,0.000885,0,0
0:2:53.854,305.508,38.9002,0,0.000885,0,0
0:2:54.757,306.74,39.0588,0,0.000885,0,0
0:2:55.646,308.853,39.3277,0,0.000885,0,0
0:2:56.562,310.321,39.5139,0,0.000885,0,0
0:2:57.464,311.963,39.7207,0,0.000885,0,0
0:2:58.364,314.013,39.9827,0,0.000885,0,0
0:2:59.266,316.126,40.2516,0,0.000885,0,0
0:3:0.154,317.474,40.424,0,0.000885,0,0
0:3:1.063,319.293,40.6515,0,0.000885,0,0
0:3:1.967,321.522,40.9342,0,0.000885,0,0
0:3:2.864,322.928,41.1134,0,0.000885,0,0
0:3:3.764,324.453,41.3134,0,0.000885,0,0
0:3:4.660,326.388,41.5547,0,0.000885,0,0
0:3:5.566,327.62,41.7133,0,0.000885,0,0
0:3:6.462,329.849,41.996,0,0.000885,0,0
0:3:7.369,331.962,42.2649,0,0.000885,0,0
0:3:8.262,333.603,42.4786,0,0.000885,0,0
0:3:9.159,335.538,42.7199,0,0.000885,0,0
0:3:10.056,337.358,42.9543,0,0.000885,0,0
0:3:10.947,338.883,43.1474,0,0.000885,0,0
0:3:11.844,340.703,43.3818,0,0.000885,0,0
0:3:12.748,341.579,43.4921,0,0.000885,0,0
0:3:13.638,344.043,43.8024,0,0.000885,0,0
0:3:14.530,345.569,44.0023,0,0.000885,0,0
0:3:15.418,347.446,44.2368,0,0.000885,0,0
0:3:16.317,349.559,44.5057,0,0.000885,0,0
0:3:17.219,350.787,44.6642,0,0.000885,0,0
0:3:18.111,352.49,44.878,0,0.000885,0,0
0:3:19.003,354.892,45.1882,0,0.000885,0,0
0:3:19.889,356.067,45.333,0,0.000885,0,0
0:3:20.775,357.593,45.533,0,0.000885,0,0
0:3:21.681,359.412,45.7605,0,0.000885,0,0
0:3:22.584,361.053,45.9673,0,0.000885,0,0
0:3:23.471,363.455,46.2776,0,0.000885,0,0
0:3:24.367,365.159,46.4913,0,0.000885,0,0
0:3:25.267,366.8,46.7051,0,0.000885,0,0
0:3:26.166,368.62,46.9326,0,0.000885,0,0
0:3:27.074,369.967,47.105,0,0.000885,0,0
0:3:27.966,371.609,47.3118,0,0.000885,0,0
0:3:28.868,373.37,47.5394,0,0.000885,0,0
0:3:29.762,374.131,47.6359,0,0.000885,0,0
0:3:30.667,376.653,47.9599,0,0.000885,0,0
0:3:31.572,377.534,48.0702,0,0.000885,0,0
0:3:32.476,377.125,48.0151,0,0.000885,0,0
0:3:33.370,371.609,47.3118,0,0.000885,0,0
0:3:34.264,368.735,46.9464,0,0.000885,0,0
0:3:35.168,339.35,43.2094,0,0.000885,0,0
0:3:36.068,300.993,38.3211,0,0.000885,0,0
0:3:36.572,274.251,34.9219,0,0.000885,0,0

File: DataFile2021-06-07_070640.csv
Test ID:,Date Tested:,Time:,Test Type:,Diameter Avg. (mm):,Cyl. Corr. Factor:,Height (mm):,Age (days):,Weight (kN):,Break Type:,Ramp Rate (MPa/s):,Load at Break (kN):,Stress at Break (MPa):
12,6/7/2021,07:06,Cylinder,100,1,200,0,3.6,4,0.24,390.02,49.66
Sample Time,Load (kN),Stress (MPa),Long. Strain,Trans. Strain,Chan1 Deflection (mm),Chan2 Deflection (mm)
0:0:22.031,8.03349,1.02042,0,0.000885,0,0
0:0:22.925,13.6071,1.73058,0,0.000885,0,0
0:0:23.840,13.0778,1.66853,0,0.000885,0,0
0:0:24.730,12.3171,1.56511,0,0.000885,0,0
0:0:25.630,12.4906,1.59269,0,0.000885,0,0
0:0:26.536,13.4292,1.7099,0,0.000885,0,0
0:0:27.439,14.7814,1.88227,0,0.000885,0,0
0:0:28.349,16.7742,2.13737,0,0.000885,0,0
0:0:29.251,18.945,2.41317,0,0.000885,0,0
0:0:30.148,21.347,2.71653,0,0.000885,0,0
0:0:31.046,23.5756,2.99922,0,0.000885,0,0
0:0:31.938,24.7499,3.1509,0,0.000885,0,0
0:0:32.844,26.7427,3.40601,0,0.000885,0,0
0:0:33.750,27.917,3.55769,0,0.000885,0,0
0:0:34.650,29.9098,3.80591,0,0.000885,0,0
0:0:35.545,31.4934,4.01275,0,0.000885,0,0
0:0:36.438,33.3706,4.24717,0,0.000885,0,0
0:0:37.338,35.2477,4.48849,0,0.000885,0,0
0:0:38.250,36.8313,4.68843,0,0.000885,0,0
0:0:39.151,38.5349,4.90907,0,0.000885,0,0
0:0:40.044,40.7057,5.18486,0,0.000885,0,0
0:0:40.942,41.9957,5.34344,0,0.000885,0,0
0:0:41.840,43.6371,5.55717,0,0.000885,0,0
0:0:42.741,46.1014,5.86744,0,0.000885,0,0
0:0:43.648,47.1556,6.00533,0,0.000885,0,0
0:0:44.548,49.1484,6.26044,0,0.000885,0,0
0:0:45.445,50.6163,6.4466,0,0.000885,0,0
0:0:46.339,52.9605,6.74307,0,0.000885,0,0
0:0:47.232,54.4863,6.93613,0,0.000885,0,0
0:0:48.143,56.657,7.21192,0,0.000885,0,0
0:0:49.049,58.1827,7.40497,0,0.000885,0,0
0:0:49.942,59.8241,7.61871,0,0.000885,0,0
0:0:50.836,61.6435,7.84623,0,0.000885,0,0
0:0:51.735,63.4005,8.07376,0,0.000885,0,0
0:0:52.648,65.162,8.29439,0,0.000885,0,0
0:0:53.556,66.6877,8.48745,0,0.000885,0,0
0:0:54.451,69.4412,8.83908,0,0.000885,0,0
0:0:55.347,70.9669,9.03903,0,0.000885,0,0
0:0:56.242,71.7276,9.13555,0,0.000885,0,0
0:0:57.135,73.4312,9.34929,0,0.000885,0,0
0:0:58.045,75.8956,9.66645,0,0.000885,0,0
0:0:58.950,77.359,9.85261,0,0.000885,0,0
0:0:59.847,79.4141,10.1077,0,0.000885,0,0
0:1:0.740,81.1711,10.3352,0,0.000885,0,0
0:1:1.634,82.8125,10.5421,0,0.000885,0,0
0:1:2.542,84.2226,10.7213,0,0.000885,0,0
0:1:3.452,86.2733,10.9833,0,0.000885,0,0
0:1:4.353,88.3283,11.2453,0,0.000885,0,0
0:1:5.248,90.0854,11.4729,0,0.000885,0,0
0:1:6.145,92.0248,11.7142,0,0.000885,0,0
0:1:7.040,93.0212,11.8452,0,0.000885,0,0
0:1:7.941,95.6012,12.1692,0,0.000885,0,0
0:1:8.847,96.949,12.3416,0,0.000885,0,0
0:1:9.746,98.884,12.5898,0,0.000885,0,0
0:1:10.642,100.468,12.7898,0,0.000885,0,0
0:1:11.543,101.878,12.969,0,0.000885,0,0
0:1:12.442,103.87,13.2241,0,0.000885,0,0
0:1:13.351,105.454,13.4241,0,0.000885,0,0
0:1:14.252,107.625,13.6999,0,0.000885,0,0
0:1:15.145,109.733,13.9688,0,0.000885,0,0
0:1:16.039,111.317,14.1756,0,0.000885,0,0
0:1:16.936,112.549,14.3273,0,0.000885,0,0
0:1:17.850,114.955,14.6376,0,0.000885,0,0
0:1:18.757,116.481,14.8306,0,0.000885,0,0
0:1:19.653,117.771,14.9961,0,0.000885,0,0
0:1:20.550,120.115,15.2926,0,0.000885,0,0
0:1:21.447,122.17,15.5546,0,0.000885,0,0
0:1:22.340,123.225,15.6925,0,0.000885,0,0
0:1:23.250,125.16,15.9338,0,0.000885,0,0
0:1:24.152,127.095,16.182,0,0.000885,0,0
0:1:25.050,128.327,16.3406,0,0.000885,0,0
0:1:25.945,130.497,16.6164,0,0.000885,0,0
0:1:26.838,132.49,16.8715,0,0.000885,0,0
0:1:27.739,134.074,17.0714,0,0.000885,0,0
0:1:28.648,135.835,17.2921,0,0.000885,0,0
0:1:29.549,137.592,17.5196,0,0.000885,0,0
0:1:30.441,138.651,17.6506,0,0.000885,0,0
0:1:31.332,141.818,18.0574,0,0.000885,0,0
0:1:32.239,142.872,18.1884,0,0.000885,0,0
0:1:33.148,144.865,18.4435,0,0.000885,0,0
0:1:34.055,146.685,18.6779,0,0.000885,0,0
0:1:34.950,148.152,18.8641,0,0.000885,0,0
0:1:35.843,150.323,19.1398,0,0.000885,0,0
0:1:36.742,151.435,19.2846,0,0.000885,0,0
0:1:37.647,154.015,19.6087,0,0.000885,0,0
0:1:38.557,155.247,19.7673,0,0.000885,0,0
0:1:39.458,157.476,20.05,0,0.000885,0,0
0:1:40.353,158.708,20.2085,0,0.000885,0,0
0:1:41.251,160.643,20.4567,0,0.000885,0,0
0:1:42.143,162.227,20.6567,0,0.000885,0,0
0:1:43.054,164.455,20.9394,0,0.000885,0,0
0:1:43.955,165.981,21.1324,0,0.000885,0,0
0:1:44.853,167.622,21.3393,0,0.000885,0,0
0:1:45.747,169.735,21.6082,0,0.000885,0,0
0:1:46.640,171.377,21.8219,0,0.000885,0,0
0:1:47.548,173.018,22.0287,0,0.000885,0,0
0:1:48.458,174.602,22.2287,0,0.000885,0,0
0:1:49.357,176.185,22.4355,0,0.000885,0,0
0:1:50.249,177.827,22.6424,0,0.000885,0,0
0:1:51.144,180.291,22.9526,0,0.000885,0,0
0:1:52.042,181.874,23.1595,0,0.000885,0,0
0:1:52.944,183.694,23.387,0,0.000885,0,0
0:1:53.850,184.926,23.5456,0,0.000885,0,0
0:1:54.745,186.861,23.7938,0,0.000885,0,0
0:1:55.644,188.68,24.0213,0,0.000885,0,0
0:1:56.547,191.376,24.3661,0,0.000885,0,0
0:1:57.435,192.608,24.5247,0,0.000885,0,0
0:1:58.345,194.837,24.8073,0,0.000885,0,0
0:1:59.244,196.011,24.959,0,0.000885,0,0
0:2:0.139,198.355,25.2555,0,0.000885,0,0
0:2:1.044,200.29,25.5037,0,0.000885,0,0
0:2:1.943,201.7,25.683,0,0.000885,0,0
0:2:2.842,202.461,25.7795,0,0.000885,0,0
0:2:3.744,205.099,26.1173,0,0.000885,0,0
0:2:4.640,206.624,26.3104,0,0.000885,0,0
0:2:5.540,207.799,26.4552,0,0.000885,0,0
0:2:6.439,210.263,26.7723,0,0.000885,0,0
0:2:7.334,212.14,27.0137,0,0.000885,0,0
0:2:8.240,213.194,27.1447,0,0.000885,0,0
0:2:9.134,215.774,27.4756,0,0.000885,0,0
0:2:10.047,217.122,27.648,0,0.000885,0,0
0:2:10.942,218.826,27.8617,0,0.000885,0,0
0:2:11.836,220.761,28.1099,0,0.000885,0,0
0:2:12.730,222.932,28.3857,0,0.000885,0,0
0:2:13.634,224.573,28.5926,0,0.000885,0,0
0:2:14.537,226.099,28.7856,0,0.000885,0,0
0:2:15.444,227.856,29.0131,0,0.000885,0,0
0:2:16.344,229.853,29.2682,0,0.000885,0,0
0:2:17.232,231.259,29.4475,0,0.000885,0,0
0:2:18.136,233.665,29.7509,0,0.000885,0,0
0:2:19.037,235.306,29.9577,0,0.000885,0,0
0:2:19.937,236.832,30.1577,0,0.000885,0,0
0:2:20.836,238.416,30.3576,0,0.000885,0,0
0:2:21.745,240.293,30.592,0,0.000885,0,0
0:2:22.650,242.108,30.8265,0,0.000885,0,0
0:2:23.551,243.691,31.0264,0,0.000885,0,0
0:2:24.447,245.626,31.2746,0,0.000885,0,0
0:2:25.341,246.859,31.4332,0,0.000885,0,0
0:2:26.238,248.971,31.7021,0,0.000885,0,0
0:2:27.130,250.791,31.9296,0,0.000885,0,0
0:2:28.036,252.316,32.1227,0,0.000885,0,0
0:2:28.937,254.074,32.3502,0,0.000885,0,0
0:2:29.846,255.835,32.5708,0,0.000885,0,0
0:2:30.746,257.712,32.8121,0,0.000885,0,0
0:2:31.635,259.354,33.019,0,0.000885,0,0
0:2:32.538,261.818,33.3362,0,0.000885,0,0
0:2:33.438,262.049,33.3637,0,0.000885,0,0
0:2:34.343,264.398,33.6671,0,0.000885,0,0
0:2:35.250,267.036,33.998,0,0.000885,0,0
0:2:36.133,268.735,34.2187,0,0.000885,0,0
0:2:37.043,270.79,34.4807,0,0.000885,0,0
0:2:37.946,272.725,34.722,0,0.000885,0,0
0:2:38.845,272.609,34.7082,0,0.000885,0,0
0:2:39.739,275.131,35.0323,0,0.000885,0,0
0:2:40.637,277.654,35.3494,0,0.000885,0,0
0:2:41.537,279.175,35.5425,0,0.000885,0,0
0:2:42.425,280.758,35.7493,0,0.000885,0,0
0:2:43.330,282.462,35.9631,0,0.000885,0,0
0:2:44.235,284.046,36.163,0,0.000885,0,0
0:2:45.128,286.799,36.5146,0,0.000885,0,0
0:2:46.025,287.444,36.5974,0,0.000885,0,0
0:2:46.933,288.796,36.7697,0,0.000885,0,0
0:2:47.851,291.141,37.0662,0,0.000885,0,0
0:2:48.754,293.311,37.3489,0,0.000885,0,0
0:2:49.649,295.131,37.5764,0,0.000885,0,0
0:2:50.545,297.008,37.8177,0,0.000885,0,0
0:2:51.429,298.178,37.9625,0,0.000885,0,0
0:2:52.333,300.233,38.2245,0,0.000885,0,0
0:2:53.240,302.403,38.5003,0,0.000885,0,0
0:2:54.146,303.751,38.6727,0,0.000885,0,0
0:2:55.029,305.157,38.852,0,0.000885,0,0
0:2:55.938,307.915,39.2036,0,0.000885,0,0
0:2:56.830,309.325,39.3829,0,0.000885,0,0
0:2:57.737,310.673,39.5552,0,0.000885,0,0
0:2:58.637,312.256,39.7552,0,0.000885,0,0
0:2:59.547,314.249,40.0103,0,0.000885,0,0
0:3:0.445,316.068,40.2447,0,0.000885,0,0
0:3:1.347,318.297,40.5274,0,0.000885,0,0
0:3:2.252,319.76,40.7135,0,0.000885,0,0
0:3:3.157,321.17,40.8928,0,0.000885,0,0
0:3:4.054,323.693,41.2169,0,0.000885,0,0
0:3:4.942,324.983,41.3754,0,0.000885,0,0
0:3:5.841,326.566,41.5823,0,0.000885,0,0
0:3:6.737,328.092,41.7753,0,0.000885,0,0
0:3:7.646,329.733,41.9822,0,0.000885,0,0
0:3:8.548,331.962,42.2649,0,0.000885,0,0
0:3:9.453,334.368,42.5751,0,0.000885,0,0
0:3:10.349,335.365,42.6992,0,0.000885,0,0
0:3:11.234,337.767,43.0026,0,0.000885,0,0
0:3:12.141,338.883,43.1474,0,0.000885,0,0
0:3:13.046,340.76,43.3887,0,0.000885,0,0
0:3:13.947,342.869,43.6576,0,0.000885,0,0
0:3:14.834,344.221,43.83,0,0.000885,0,0
0:3:15.753,346.214,44.0782,0,0.000885,0,0
0:3:16.642,348.62,44.3884,0,0.000885,0,0
0:3:17.540,349.559,44.5057,0,0.000885,0,0
0:3:18.448,351.552,44.7608,0,0.000885,0,0
0:3:19.339,353.545,45.0159,0,0.000885,0,0
0:3:20.238,354.599,45.1469,0,0.000885,0,0
0:3:21.129,356.827,45.4296,0,0.000885,0,0
0:3:22.036,358.767,45.6778,0,0.000885,0,0
0:3:22.932,360.23,45.8639,0,0.000885,0,0
0:3:23.834,362.285,46.1259,0,0.000885,0,0
0:3:24.738,363.34,46.2638,0,0.000885,0,0
0:3:25.633,365.217,46.4982,0,0.000885,0,0
0:3:26.531,367.561,46.8016,0,0.000885,0,0
0:3:27.433,369.029,46.9878,0,0.000885,0,0
0:3:28.337,370.377,47.1601,0,0.000885,0,0
0:3:29.241,372.663,47.4497,0,0.000885,0,0
0:3:30.145,374.54,47.691,0,0.000885,0,0
0:3:31.046,375.893,47.8565,0,0.000885,0,0
0:3:31.937,377.414,48.0565,0,0.000885,0,0
0:3:32.842,379.705,48.346,0,0.000885,0,0
0:3:33.745,381.23,48.5391,0,0.000885,0,0
0:3:34.645,382.93,48.7528,0,0.000885,0,0
0:3:35.557,384.687,48.9804,0,0.000885,0,0
0:3:36.442,386.039,49.1527,0,0.000885,0,0
0:3:37.331,387.854,49.3803,0,0.000885,0,0
0:3:38.236,388.912,49.5181,0,0.000885,0,0
0:3:39.135,389.673,49.6147,0,0.000885,0,0
0:3:40.052,389.086,49.5388,0,0.000885,0,0
0:3:40.945,378.472,48.1875,0,0.000885,0,0
0:3:41.353,312.55,39.7965,0,0.000885,0,0