Folder: Experiment-Files (part 18)

File: DataFile2021-06-07_073918.csv
Test ID:,Date Tested:,Time:,Test Type:,Diameter Avg. (mm):,Cyl. Corr. Factor:,Height (mm):,Age (days):,Weight (kN):,Break Type:,Ramp Rate (MPa/s):,Load at Break (kN):,Stress at Break (MPa):
12,6/7/2021,07:39,Cylinder,100,1,200,0,3.6,3,0.24,460.7,58.66
Sample Time,Load (kN),Stress (MPa),Long. Strain,Trans. Strain,Chan1 Deflection (mm),Chan2 Deflection (mm)
0:0:18.056,6.44992,0.820476,0,0.000885,0,0
0:0:19.149,11.9079,1.51685,0,0.000885,0,0
0:0:20.243,11.3207,1.441,0,0.000885,0,0
0:0:21.334,11.085,1.41343,0,0.000885,0,0
0:0:22.424,12.7842,1.62716,0,0.000885,0,0
0:0:23.520,14.8971,1.89606,0,0.000885,0,0
0:0:24.633,18.5357,2.35801,0,0.000885,0,0
0:0:25.728,20.88,2.66138,0,0.000885,0,0
0:0:26.824,22.637,2.88201,0,0.000885,0,0
0:0:27.921,24.3985,3.10954,0,0.000885,0,0
0:0:29.026,26.5114,3.37843,0,0.000885,0,0
0:0:30.135,28.74,3.66112,0,0.000885,0,0
0:0:31.229,31.142,3.96449,0,0.000885,0,0
0:0:32.323,32.8457,4.18512,0,0.000885,0,0
0:0:33.423,35.8927,4.57122,0,0.000885,0,0
0:0:34.534,37.5341,4.77807,0,0.000885,0,0
0:0:35.632,39.4735,5.02628,0,0.000885,0,0
0:0:36.727,41.7021,5.30896,0,0.000885,0,0
0:0:37.823,44.1619,5.62612,0,0.000885,0,0
0:0:38.927,45.8656,5.83986,0,0.000885,0,0
0:0:40.033,47.8006,6.08807,0,0.000885,0,0
0:0:41.128,51.0834,6.50176,0,0.000885,0,0
0:0:42.224,52.787,6.72239,0,0.000885,0,0
0:0:43.317,54.6019,6.94992,0,0.000885,0,0
0:0:44.430,57.302,7.29465,0,0.000885,0,0
0:0:45.532,58.7076,7.47392,0,0.000885,0,0
0:0:46.625,61.4077,7.81865,0,0.000885,0,0
0:0:47.718,63.4583,8.08066,0,0.000885,0,0
0:0:48.817,65.4556,8.33576,0,0.000885,0,0
0:0:49.930,68.0934,8.66671,0,0.000885,0,0
0:0:51.026,69.7926,8.88734,0,0.000885,0,0
0:0:52.123,71.9633,9.16313,0,0.000885,0,0
0:0:53.219,74.2497,9.45271,0,0.000885,0,0
0:0:54.333,76.1891,9.70092,0,0.000885,0,0
0:0:55.433,78.3554,9.97671,0,0.000885,0,0
0:0:56.526,80.6463,10.2663,0,0.000885,0,0
0:0:57.619,82.6391,10.5214,0,0.000885,0,0
0:0:58.724,85.3347,10.8661,0,0.000885,0,0
0:0:59.835,87.6255,11.1557,0,0.000885,0,0
0:1:0.932,89.3826,11.3832,0,0.000885,0,0
0:1:2.025,91.4376,11.6452,0,0.000885,0,0
0:1:3.120,93.4304,11.8935,0,0.000885,0,0
0:1:4.229,95.8369,12.2037,0,0.000885,0,0
0:1:5.331,98.2968,12.514,0,0.000885,0,0
0:1:6.428,100.174,12.7553,0,0.000885,0,0
0:1:7.521,102.345,13.0311,0,0.000885,0,0
0:1:8.625,104.573,13.3138,0,0.000885,0,0
0:1:9.734,106.215,13.5206,0,0.000885,0,0
0:1:10.829,108.505,13.8171,0,0.000885,0,0
0:1:11.921,110.792,14.1067,0,0.000885,0,0
0:1:13.014,113.02,14.3894,0,0.000885,0,0
0:1:14.127,115.365,14.6858,0,0.000885,0,0
0:1:15.230,117.651,14.9823,0,0.000885,0,0
0:1:16.325,119.413,15.2029,0,0.000885,0,0
0:1:17.421,121.819,15.5132,0,0.000885,0,0
0:1:18.515,124.163,15.8097,0,0.000885,0,0
0:1:19.629,126.214,16.0717,0,0.000885,0,0
0:1:20.725,128.385,16.3475,0,0.000885,0,0
0:1:21.820,129.968,16.5474,0,0.000885,0,0
0:1:22.914,132.432,16.8646,0,0.000885,0,0
0:1:24.019,134.488,17.1266,0,0.000885,0,0
0:1:25.129,137.477,17.5058,0,0.000885,0,0
0:1:26.224,138.651,17.6506,0,0.000885,0,0
0:1:27.317,141.053,17.9608,0,0.000885,0,0
0:1:28.415,142.93,18.1953,0,0.000885,0,0
0:1:29.526,145.159,18.4848,0,0.000885,0,0
0:1:30.625,148.384,18.8916,0,0.000885,0,0
0:1:31.720,149.558,19.0433,0,0.000885,0,0
0:1:32.814,151.551,19.2984,0,0.000885,0,0
0:1:33.922,154.896,19.719,0,0.000885,0,0
0:1:35.024,156.128,19.8776,0,0.000885,0,0
0:1:36.117,158.179,20.1396,0,0.000885,0,0
0:1:37.213,160.234,20.4016,0,0.000885,0,0
0:1:38.307,162.814,20.7325,0,0.000885,0,0
0:1:39.419,164.633,20.9601,0,0.000885,0,0
0:1:40.521,167.329,21.3048,0,0.000885,0,0
0:1:41.614,169.032,21.5185,0,0.000885,0,0
0:1:42.710,171.786,21.8702,0,0.000885,0,0
0:1:43.816,174.25,22.1873,0,0.000885,0,0
0:1:44.924,175.66,22.3666,0,0.000885,0,0
0:1:46.018,177.417,22.5872,0,0.000885,0,0
0:1:47.110,179.766,22.8906,0,0.000885,0,0
0:1:48.204,181.817,23.1526,0,0.000885,0,0
0:1:49.315,184.454,23.4835,0,0.000885,0,0
0:1:50.419,186.509,23.7455,0,0.000885,0,0
0:1:51.515,188.502,24.0007,0,0.000885,0,0
0:1:52.609,190.967,24.3178,0,0.000885,0,0
0:1:53.703,192.959,24.566,0,0.000885,0,0
0:1:54.808,195.246,24.8625,0,0.000885,0,0
0:1:55.894,197.359,25.1314,0,0.000885,0,0
0:1:56.981,199.058,25.3451,0,0.000885,0,0
0:1:58.086,200.877,25.5795,0,0.000885,0,0
0:1:59.190,203.987,25.9726,0,0.000885,0,0
0:2:0.285,205.922,26.2208,0,0.000885,0,0
0:2:1.369,207.741,26.4483,0,0.000885,0,0
0:2:2.464,210.436,26.793,0,0.000885,0,0
0:2:3.572,212.198,27.0206,0,0.000885,0,0
0:2:4.676,214.191,27.2688,0,0.000885,0,0
0:2:5.774,216.419,27.5583,0,0.000885,0,0
0:2:6.862,218.474,27.8135,0,0.000885,0,0
0:2:7.958,221.17,28.1582,0,0.000885,0,0
0:2:9.054,223.283,28.4271,0,0.000885,0,0
0:2:10.155,225.334,28.6891,0,0.000885,0,0
0:2:11.241,227.095,28.9166,0,0.000885,0,0
0:2:12.328,229.791,29.2613,0,0.000885,0,0
0:2:13.423,231.788,29.5096,0,0.000885,0,0
0:2:14.526,234.074,29.806,0,0.000885,0,0
0:2:15.612,236.481,30.1094,0,0.000885,0,0
0:2:16.699,238.064,30.3094,0,0.000885,0,0
0:2:17.786,240.173,30.5782,0,0.000885,0,0
0:2:18.892,242.286,30.8471,0,0.000885,0,0
0:2:19.991,244.688,31.1574,0,0.000885,0,0
0:2:21.085,246.214,31.3505,0,0.000885,0,0
0:2:22.190,248.856,31.6883,0,0.000885,0,0
0:2:23.285,250.319,31.8745,0,0.000885,0,0
0:2:24.393,252.841,32.1916,0,0.000885,0,0
0:2:25.488,256.066,32.6053,0,0.000885,0,0
0:2:26.583,257.592,32.7984,0,0.000885,0,0
0:2:27.686,259.411,33.0259,0,0.000885,0,0
0:2:28.791,261.991,33.3568,0,0.000885,0,0
0:2:29.885,264.278,33.6464,0,0.000885,0,0
0:2:30.991,266.039,33.8739,0,0.000885,0,0
0:2:32.089,268.619,34.2049,0,0.000885,0,0
0:2:33.185,270.79,34.4807,0,0.000885,0,0
0:2:34.290,272.196,34.6599,0,0.000885,0,0
0:2:35.391,274.602,34.9633,0,0.000885,0,0
0:2:36.486,277.298,35.3081,0,0.000885,0,0
0:2:37.591,278.472,35.4528,0,0.000885,0,0
0:2:38.688,281.875,35.8872,0,0.000885,0,0
0:2:39.790,283.868,36.1423,0,0.000885,0,0
0:2:40.887,286.038,36.4181,0,0.000885,0,0
0:2:41.990,287.564,36.6112,0,0.000885,0,0
0:2:43.084,289.735,36.887,0,0.000885,0,0
0:2:44.189,291.843,37.1558,0,0.000885,0,0
0:2:45.285,294.423,37.4868,0,0.000885,0,0
0:2:46.392,296.714,37.7764,0,0.000885,0,0
0:2:47.486,298.471,38.0039,0,0.000885,0,0
0:2:48.587,300.878,38.3073,0,0.000885,0,0
0:2:49.692,302.519,38.521,0,0.000885,0,0
0:2:50.777,305.099,38.8451,0,0.000885,0,0
0:2:51.864,307.034,39.0933,0,0.000885,0,0
0:2:52.963,309.498,39.4035,0,0.000885,0,0
0:2:54.059,311.553,39.6655,0,0.000885,0,0
0:2:55.159,313.368,39.9,0,0.000885,0,0
0:2:56.244,315.948,40.2309,0,0.000885,0,0
0:2:57.332,318.533,40.555,0,0.000885,0,0
0:2:58.429,320.348,40.7894,0,0.000885,0,0
0:2:59.531,321.758,40.9686,0,0.000885,0,0
0:3:0.616,324.395,41.3065,0,0.000885,0,0
0:3:1.703,326.037,41.5133,0,0.000885,0,0
0:3:2.787,328.617,41.8443,0,0.000885,0,0
0:3:3.889,331.317,42.1821,0,0.000885,0,0
0:3:4.991,332.665,42.3545,0,0.000885,0,0
0:3:6.087,334.835,42.6303,0,0.000885,0,0
0:3:7.181,337.358,42.9543,0,0.000885,0,0
0:3:8.288,339.586,43.237,0,0.000885,0,0
0:3:9.394,341.993,43.5404,0,0.000885,0,0
0:3:10.488,343.456,43.7334,0,0.000885,0,0
0:3:11.593,345.333,43.9679,0,0.000885,0,0
0:3:12.688,347.562,44.2506,0,0.000885,0,0
0:3:13.793,350.084,44.5746,0,0.000885,0,0
0:3:14.888,352.606,44.8987,0,0.000885,0,0
0:3:15.994,354.31,45.1124,0,0.000885,0,0
0:3:17.090,356.596,45.402,0,0.000885,0,0
0:3:18.195,358.825,45.6847,0,0.000885,0,0
0:3:19.302,360.702,45.926,0,0.000885,0,0
0:3:20.390,362.285,46.1259,0,0.000885,0,0
0:3:21.494,365.395,46.5258,0,0.000885,0,0
0:3:22.591,367.388,46.774,0,0.000885,0,0
0:3:23.696,369.38,47.0291,0,0.000885,0,0
0:3:24.799,371.315,47.2774,0,0.000885,0,0
0:3:25.883,373.895,47.6083,0,0.000885,0,0
0:3:26.997,376.124,47.891,0,0.000885,0,0
0:3:28.093,377.943,48.1185,0,0.000885,0,0
0:3:29.196,380.292,48.4219,0,0.000885,0,0
0:3:30.291,382.342,48.6839,0,0.000885,0,0
0:3:31.389,384.807,48.9941,0,0.000885,0,0
0:3:32.497,387.093,49.2837,0,0.000885,0,0
0:3:33.595,388.912,49.5181,0,0.000885,0,0
0:3:34.692,390.905,49.7733,0,0.000885,0,0
0:3:35.797,393.37,50.0835,0,0.000885,0,0
0:3:36.891,395.189,50.3179,0,0.000885,0,0
0:3:37.990,397.942,50.6696,0,0.000885,0,0
0:3:39.096,399.468,50.8626,0,0.000885,0,0
0:3:40.200,401.875,51.166,0,0.000885,0,0
0:3:41.297,403.983,51.4349,0,0.000885,0,0
0:3:42.393,406.447,51.752,0,0.000885,0,0
0:3:43.492,408.44,52.0072,0,0.000885,0,0
0:3:44.595,410.495,52.2692,0,0.000885,0,0
0:3:45.694,413.133,52.6001,0,0.000885,0,0
0:3:46.792,414.837,52.8207,0,0.000885,0,0
0:3:47.900,416.42,53.0207,0,0.000885,0,0
0:3:49.005,419.232,53.3792,0,0.000885,0,0
0:3:50.097,421.402,53.655,0,0.000885,0,0
0:3:51.192,423.4,53.9101,0,0.000885,0,0
0:3:52.298,425.922,54.2273,0,0.000885,0,0
0:3:53.392,427.621,54.4479,0,0.000885,0,0
0:3:54.494,429.382,54.6685,0,0.000885,0,0
0:3:55.593,431.842,54.9857,0,0.000885,0,0
0:3:56.700,433.897,55.2477,0,0.000885,0,0
0:3:57.797,436.068,55.5235,0,0.000885,0,0
0:3:58.905,438.648,55.8475,0,0.000885,0,0
0:4:0.002,440.525,56.0889,0,0.000885,0,0
0:4:1.097,442.634,56.3577,0,0.000885,0,0
0:4:2.196,445.098,56.6749,0,0.000885,0,0
0:4:3.293,447.269,56.9507,0,0.000885,0,0
0:4:4.400,449.088,57.1782,0,0.000885,0,0
0:4:5.502,451.081,57.4333,0,0.000885,0,0
0:4:6.595,453.545,57.7436,0,0.000885,0,0
0:4:7.700,454.248,57.8332,0,0.000885,0,0
0:4:8.799,456.361,58.1021,0,0.000885,0,0
0:4:9.900,456.886,58.1711,0,0.000885,0,0
0:4:10.996,459.822,58.5434,0,0.000885,0,0
0:4:12.088,459.644,58.5227,0,0.000885,0,0
0:4:13.199,435.654,55.4683,0,0.000885,0,0
0:4:14.300,401.109,51.0695,0,0.000885,0,0
0:4:15.395,404.161,51.4625,0,0.000885,0,0
0:4:16.501,405.157,51.5866,0,0.000885,0,0
0:4:17.595,407.622,51.8968,0,0.000885,0,0
0:4:18.701,409.966,52.2002,0,0.000885,0,0
0:4:19.794,413.253,52.6139,0,0.000885,0,0
0:4:20.899,416.007,52.9655,0,0.000885,0,0
0:4:21.995,409.379,52.1244,0,0.000885,0,0
0:4:23.100,411.256,52.3657,0,0.000885,0,0
0:4:24.203,412.608,52.5381,0,0.000885,0,0
0:4:25.302,413.898,52.6966,0,0.000885,0,0
0:4:26.391,414.837,52.8207,0,0.000885,0,0
0:4:27.496,414.952,52.8345,0,0.000885,0,0
0:4:28.600,410.904,52.3174,0,0.000885,0,0
0:4:29.701,410.553,52.276,0,0.000885,0,0
0:4:30.792,409.263,52.1106,0,0.000885,0,0
0:4:31.895,403.044,51.3177,0,0.000885,0,0
0:4:32.997,394.953,50.2835,0,0.000885,0,0
0:4:34.097,390.025,49.6629,0,0.000885,0,0
0:4:35.187,384.277,48.9252,0,0.000885,0,0
0:4:36.293,371.96,47.3601,0,0.000885,0,0
0:4:37.400,353.193,44.9676,0,0.000885,0,0
0:4:38.506,336.655,42.8647,0,0.000885,0,0
0:4:39.569,323.75,41.2238,0,0.000885,0,0

File: DataFile2021-06-07_075308.csv
Test ID:,Date Tested:,Time:,Test Type:,Diameter Avg. (mm):,Cyl. Corr. Factor:,Height (mm):,Age (days):,Weight (kN):,Break Type:,Ramp Rate (MPa/s):,Load at Break (kN):,Stress at Break (MPa):
12,6/7/2021,07:53,Cylinder,100,1,200,0,3.6,3,0.25,792.83,100.95
Sample Time,Load (kN),Stress (MPa),Long. Strain,Trans. Strain,Chan1 Deflection (mm),Chan2 Deflection (mm)
0:0:15.825,5.04428,0.641212,0,0.000885,0,0
0:0:17.514,8.74076,1.11006,0,0.000885,0,0
0:0:19.226,11.6721,1.48927,0,0.000885,0,0
0:0:20.920,14.8971,1.89606,0,0.000885,0,0
0:0:22.639,18.1221,2.30974,0,0.000885,0,0
0:0:24.334,21.9342,2.79238,0,0.000885,0,0
0:0:26.024,25.8664,3.29569,0,0.000885,0,0
0:0:27.739,29.6207,3.77143,0,0.000885,0,0
0:0:29.434,31.787,4.04722,0,0.000885,0,0
0:0:31.135,35.4256,4.50917,0,0.000885,0,0
0:0:32.850,38.2992,4.87459,0,0.000885,0,0
0:0:34.543,42.4627,5.40549,0,0.000885,0,0
0:0:36.236,45.1628,5.75023,0,0.000885,0,0
0:0:37.947,49.1484,6.26044,0,0.000885,0,0
0:0:39.640,52.3155,6.66034,0,0.000885,0,0
0:0:41.334,55.4827,7.06713,0,0.000885,0,0
0:0:43.045,58.592,7.46013,0,0.000885,0,0
0:0:44.739,62.582,7.97034,0,0.000885,0,0
0:0:46.432,65.0419,8.2806,0,0.000885,0,0
0:0:48.146,68.7962,8.75634,0,0.000885,0,0
0:0:49.838,72.7284,9.25966,0,0.000885,0,0
0:0:51.541,75.4819,9.61129,0,0.000885,0,0
0:0:53.247,78.7691,10.0319,0,0.000885,0,0
0:0:54.937,82.2877,10.48,0,0.000885,0,0
0:0:56.642,85.5704,10.8937,0,0.000885,0,0
0:0:58.349,88.5641,11.2729,0,0.000885,0,0
0:1:0.039,92.3762,11.7625,0,0.000885,0,0
0:1:1.743,95.3654,12.1417,0,0.000885,0,0
0:1:3.453,99.1197,12.6174,0,0.000885,0,0
0:1:5.141,102.523,13.0518,0,0.000885,0,0
0:1:6.843,105.454,13.4241,0,0.000885,0,0
0:1:8.554,109.03,13.8791,0,0.000885,0,0
0:1:10.243,111.317,14.1756,0,0.000885,0,0
0:1:11.955,116.01,14.7686,0,0.000885,0,0
0:1:13.654,118.768,15.1202,0,0.000885,0,0
0:1:15.344,122.108,15.5477,0,0.000885,0,0
0:1:17.051,125.453,15.9752,0,0.000885,0,0
0:1:18.751,128.62,16.375,0,0.000885,0,0
0:1:20.444,132.317,16.8439,0,0.000885,0,0
0:1:22.147,135.364,17.2369,0,0.000885,0,0
0:1:23.850,138.825,17.6782,0,0.000885,0,0
0:1:25.542,142.405,18.1332,0,0.000885,0,0
0:1:27.255,145.688,18.5469,0,0.000885,0,0
0:1:28.948,148.797,18.9468,0,0.000885,0,0
0:1:30.642,151.787,19.326,0,0.000885,0,0
0:1:32.354,155.541,19.8017,0,0.000885,0,0
0:1:34.048,159.06,20.2499,0,0.000885,0,0
0:1:35.741,161.697,20.5877,0,0.000885,0,0
0:1:37.451,165.336,21.0497,0,0.000885,0,0
0:1:39.149,168.854,21.4979,0,0.000885,0,0
0:1:40.844,172.493,21.9598,0,0.000885,0,0
0:1:42.554,175.189,22.3045,0,0.000885,0,0
0:1:44.249,179.237,22.8216,0,0.000885,0,0
0:1:45.942,182.226,23.2009,0,0.000885,0,0
0:1:47.653,185.393,23.6076,0,0.000885,0,0
0:1:49.348,188.56,24.0075,0,0.000885,0,0
0:1:51.043,192.257,24.4764,0,0.000885,0,0
0:1:52.744,195.717,24.9177,0,0.000885,0,0
0:1:54.435,199.294,25.3727,0,0.000885,0,0
0:1:56.113,202.167,25.7381,0,0.000885,0,0
0:1:57.824,205.512,26.1656,0,0.000885,0,0
0:1:59.536,209.031,26.6138,0,0.000885,0,0
0:2:1.217,212.549,27.0619,0,0.000885,0,0
0:2:2.917,215.187,27.3998,0,0.000885,0,0
0:2:4.626,218.768,27.8548,0,0.000885,0,0
0:2:6.314,221.757,28.234,0,0.000885,0,0
0:2:8.014,225.979,28.7718,0,0.000885,0,0
0:2:9.696,228.385,29.0821,0,0.000885,0,0
0:2:11.374,231.904,29.5302,0,0.000885,0,0
0:2:13.080,235.013,29.9232,0,0.000885,0,0
0:2:14.754,238.883,30.4128,0,0.000885,0,0
0:2:16.445,242.17,30.8334,0,0.000885,0,0
0:2:18.142,244.866,31.1781,0,0.000885,0,0
0:2:19.826,248.62,31.6538,0,0.000885,0,0
0:2:21.523,252.081,32.0951,0,0.000885,0,0
0:2:23.228,255.19,32.495,0,0.000885,0,0
0:2:24.933,258.357,32.8949,0,0.000885,0,0
0:2:26.628,262.285,33.3982,0,0.000885,0,0
0:2:28.325,265.452,33.7981,0,0.000885,0,0
0:2:30.032,268.619,34.2049,0,0.000885,0,0
0:2:31.726,271.902,34.6186,0,0.000885,0,0
0:2:33.412,274.896,34.9978,0,0.000885,0,0
0:2:35.093,278.472,35.4528,0,0.000885,0,0
0:2:36.787,281.697,35.8665,0,0.000885,0,0
0:2:38.476,285.923,36.4043,0,0.000885,0,0
0:2:40.155,288.618,36.7491,0,0.000885,0,0
0:2:41.847,292.137,37.1972,0,0.000885,0,0
0:2:43.545,295.598,37.6385,0,0.000885,0,0
0:2:45.244,298.004,37.9418,0,0.000885,0,0
0:2:46.941,301.051,38.328,0,0.000885,0,0
0:2:48.620,305.628,38.914,0,0.000885,0,0
0:2:50.309,308.502,39.2794,0,0.000885,0,0
0:2:52.007,312.256,39.7552,0,0.000885,0,0
0:2:53.687,314.952,40.0999,0,0.000885,0,0
0:2:55.372,318.533,40.555,0,0.000885,0,0
0:2:57.069,321.113,40.8859,0,0.000885,0,0
0:2:58.753,325.45,41.4375,0,0.000885,0,0
0:3:0.433,328.386,41.8098,0,0.000885,0,0
0:3:2.132,332.371,42.32,0,0.000885,0,0
0:3:3.832,335.307,42.6923,0,0.000885,0,0
0:3:5.512,338.474,43.0922,0,0.000885,0,0
0:3:7.215,341.17,43.437,0,0.000885,0,0
0:3:8.892,345.511,43.9886,0,0.000885,0,0
0:3:10.567,347.562,44.2506,0,0.000885,0,0
0:3:12.276,351.668,44.7746,0,0.000885,0,0
0:3:13.954,355.186,45.2227,0,0.000885,0,0
0:3:15.641,358.238,45.6088,0,0.000885,0,0
0:3:17.345,362.401,46.1397,0,0.000885,0,0
0:3:19.046,365.395,46.5258,0,0.000885,0,0
0:3:20.738,368.148,46.8775,0,0.000885,0,0
0:3:22.442,371.2,47.2636,0,0.000885,0,0
0:3:24.132,374.776,47.7186,0,0.000885,0,0
0:3:25.845,378.997,48.2564,0,0.000885,0,0
0:3:27.539,382.049,48.6425,0,0.000885,0,0
0:3:29.240,384.629,48.9735,0,0.000885,0,0
0:3:30.930,388.735,49.4975,0,0.000885,0,0
0:3:32.637,391.55,49.856,0,0.000885,0,0
0:3:34.337,394.602,50.2421,0,0.000885,0,0
0:3:36.036,398.472,50.7316,0,0.000885,0,0
0:3:37.737,402.048,51.1936,0,0.000885,0,0
0:3:39.432,404.69,51.5245,0,0.000885,0,0
0:3:41.123,408.209,51.9727,0,0.000885,0,0
0:3:42.827,411.901,52.4484,0,0.000885,0,0
0:3:44.533,415.54,52.9104,0,0.000885,0,0
0:3:46.223,418.529,53.2896,0,0.000885,0,0
0:3:47.919,421.638,53.6826,0,0.000885,0,0
0:3:49.596,425.392,54.1652,0,0.000885,0,0
0:3:51.283,428.15,54.5168,0,0.000885,0,0
0:3:52.979,431.611,54.9512,0,0.000885,0,0
0:3:54.655,434.658,55.3442,0,0.000885,0,0
0:3:56.346,438.234,55.7993,0,0.000885,0,0
0:3:58.034,441.401,56.1992,0,0.000885,0,0
0:3:59.733,444.982,56.6542,0,0.000885,0,0
0:4:1.434,448.443,57.0955,0,0.000885,0,0
0:4:3.132,451.962,57.5436,0,0.000885,0,0
0:4:4.842,454.777,57.9022,0,0.000885,0,0
0:4:6.556,458.238,58.3434,0,0.000885,0,0
0:4:8.241,461.112,58.7089,0,0.000885,0,0
0:4:9.931,464.746,59.1708,0,0.000885,0,0
0:4:11.626,467.913,59.5776,0,0.000885,0,0
0:4:13.317,471.783,60.0671,0,0.000885,0,0
0:4:15.000,474.892,60.467,0,0.000885,0,0
0:4:16.698,477.944,60.8531,0,0.000885,0,0
0:4:18.377,481.226,61.2737,0,0.000885,0,0
0:4:20.060,484.865,61.7357,0,0.000885,0,0
0:4:21.756,488.499,62.1976,0,0.000885,0,0
0:4:23.438,491.724,62.6113,0,0.000885,0,0
0:4:25.128,494.424,62.9491,0,0.000885,0,0
0:4:26.827,498.121,63.4249,0,0.000885,0,0
0:4:28.509,501.168,63.811,0,0.000885,0,0
0:4:30.193,504.806,64.2729,0,0.000885,0,0
0:4:31.894,507.853,64.659,0,0.000885,0,0
0:4:33.576,511.492,65.1279,0,0.000885,0,0
0:4:35.259,514.775,65.5416,0,0.000885,0,0
0:4:36.963,518.12,65.969,0,0.000885,0,0
0:4:38.650,521.051,66.3414,0,0.000885,0,0
0:4:40.352,524.392,66.7688,0,0.000885,0,0
0:4:42.057,528.146,67.2446,0,0.000885,0,0
0:4:43.753,531.371,67.6583,0,0.000885,0,0
0:4:45.441,534.187,68.0168,0,0.000885,0,0
0:4:47.147,537.768,68.4718,0,0.000885,0,0
0:4:48.843,541.402,68.9338,0,0.000885,0,0
0:4:50.552,544.689,69.3544,0,0.000885,0,0
0:4:52.262,548.323,69.8163,0,0.000885,0,0
0:4:53.959,551.255,70.1886,0,0.000885,0,0
0:4:55.645,554.836,70.6437,0,0.000885,0,0
0:4:57.340,557.825,71.0229,0,0.000885,0,0
0:4:59.048,560.876,71.4159,0,0.000885,0,0
0:5:0.754,564.862,71.9192,0,0.000885,0,0
0:5:2.453,567.562,72.264,0,0.000885,0,0
0:5:4.153,571.548,72.7742,0,0.000885,0,0
0:5:5.850,574.421,73.1396,0,0.000885,0,0
0:5:7.553,577.708,73.5533,0,0.000885,0,0
0:5:9.253,581.578,74.0497,0,0.000885,0,0
0:5:10.942,584.336,74.4013,0,0.000885,0,0
0:5:12.644,588.028,74.8702,0,0.000885,0,0
0:5:14.346,591.667,75.3321,0,0.000885,0,0
0:5:16.046,594.545,75.6975,0,0.000885,0,0
0:5:17.756,597.712,76.1043,0,0.000885,0,0
0:5:19.456,601.706,76.6145,0,0.000885,0,0
0:5:21.155,604.816,77.0075,0,0.000885,0,0
0:5:22.856,607.987,77.4143,0,0.000885,0,0
0:5:24.551,611.448,77.8487,0,0.000885,0,0
0:5:26.267,615.029,78.3107,0,0.000885,0,0
0:5:27.963,617.965,78.683,0,0.000885,0,0
0:5:29.661,621.368,79.1173,0,0.000885,0,0
0:5:31.363,625.126,79.5931,0,0.000885,0,0
0:5:33.060,627.769,79.9309,0,0.000885,0,0
0:5:34.753,631.229,80.3722,0,0.000885,0,0
0:5:36.466,634.637,80.8066,0,0.000885,0,0
0:5:38.163,637.982,81.2271,0,0.000885,0,0
0:5:39.859,641.678,81.7029,0,0.000885,0,0
0:5:41.562,644.205,82.02,0,0.000885,0,0
0:5:43.259,648.253,82.5371,0,0.000885,0,0
0:5:44.952,651.718,82.9784,0,0.000885,0,0
0:5:46.665,654.769,83.3645,0,0.000885,0,0
0:5:48.364,657.936,83.7713,0,0.000885,0,0
0:5:50.050,661.931,84.2815,0,0.000885,0,0
0:5:51.762,664.867,84.6538,0,0.000885,0,0
0:5:53.459,668.563,85.1227,0,0.000885,0,0
0:5:55.146,672.028,85.5639,0,0.000885,0,0
0:5:56.875,674.902,85.9294,0,0.000885,0,0
0:5:58.564,678.016,86.3293,0,0.000885,0,0
0:6:0.262,681.654,86.7912,0,0.000885,0,0
0:6:1.976,685.235,87.2463,0,0.000885,0,0
0:6:3.664,688.402,87.653,0,0.000885,0,0
0:6:5.363,691.632,88.0598,0,0.000885,0,0
0:6:7.074,694.625,88.4391,0,0.000885,0,0
0:6:8.760,698.028,88.8734,0,0.000885,0,0
0:6:10.467,702.023,89.3836,0,0.000885,0,0
0:6:12.181,705.252,89.7973,0,0.000885,0,0
0:6:13.863,708.246,90.1765,0,0.000885,0,0
0:6:15.568,711.884,90.6385,0,0.000885,0,0
0:6:17.282,714.642,90.9901,0,0.000885,0,0
0:6:18.966,718.926,91.5348,0,0.000885,0,0
0:6:20.671,721.804,91.9002,0,0.000885,0,0
0:6:22.374,724.856,92.2932,0,0.000885,0,0
0:6:24.062,728.378,92.7414,0,0.000885,0,0
0:6:25.773,732.195,93.224,0,0.000885,0,0
0:6:27.477,734.659,93.5412,0,0.000885,0,0
0:6:29.165,738.298,94.0031,0,0.000885,0,0
0:6:30.874,741.527,94.4168,0,0.000885,0,0
0:6:32.582,745.633,94.9339,0,0.000885,0,0
0:6:34.270,748.569,95.3131,0,0.000885,0,0
0:6:35.966,751.505,95.6854,0,0.000885,0,0
0:6:37.673,754.147,96.0233,0,0.000885,0,0
0:6:39.364,758.195,96.5335,0,0.000885,0,0
0:6:41.082,761.367,96.9403,0,0.000885,0,0
0:6:42.778,765.357,97.4505,0,0.000885,0,0
0:6:44.467,768.292,97.8228,0,0.000885,0,0
0:6:46.173,771.931,98.2848,0,0.000885,0,0
0:6:47.872,775.454,98.7329,0,0.000885,0,0
0:6:49.569,778.448,99.1121,0,0.000885,0,0
0:6:51.279,781.557,99.512,0,0.000885,0,0
0:6:52.976,785.374,99.9947,0,0.000885,0,0
0:6:54.665,787.78,100.305,0,0.000885,0,0
0:6:56.377,791.832,100.822,0,0.000885,0,0
0:6:57.502,793.358,101.015,0,0.000885,0,0