Folder: Experiment-Files (part 45)

File: DataFile2021-06-24_063505.csv
Test ID:,Date Tested:,Time:,Test Type:,Diameter Avg. (mm):,Cyl. Corr. Factor:,Height (mm):,Age (days):,Weight (kN):,Break Type:,Ramp Rate (MPa/s):,Load at Break (kN):,Stress at Break (MPa):
12,6/24/2021,06:35,Cylinder,150,1,300,0,3.6,2,0.24,597.01,33.78
Sample Time,Load (kN),Stress (MPa),Long. Strain,Trans. Strain,Chan1 Deflection (mm),Chan2 Deflection (mm)
0:0:23.242,5.92503,0.337843,0,0.000885,0,0
0:0:23.840,19.2964,1.08937,0,0.000885,0,0
0:0:24.442,17.8285,1.00663,0,0.000885,0,0
0:0:25.035,17.1835,0.972161,0,0.000885,0,0
0:0:25.625,17.4192,0.98595,0,0.000885,0,0
0:0:26.232,16.9522,0.958371,0,0.000885,0,0
0:0:26.839,19.6478,1.11006,0,0.000885,0,0
0:0:27.438,21.7607,1.23416,0,0.000885,0,0
0:0:28.032,25.0435,1.42032,0,0.000885,0,0
0:0:28.645,29.5584,1.67543,0,0.000885,0,0
0:0:29.254,33.1971,1.87537,0,0.000885,0,0
0:0:29.857,36.2441,2.04774,0,0.000885,0,0
0:0:30.458,38.1213,2.15806,0,0.000885,0,0
0:0:31.056,40.5277,2.29595,0,0.000885,0,0
0:0:31.650,42.3471,2.39938,0,0.000885,0,0
0:0:32.248,45.3941,2.57174,0,0.000885,0,0
0:0:32.844,47.3291,2.67517,0,0.000885,0,0
0:0:33.442,49.9713,2.82685,0,0.000885,0,0
0:0:34.050,53.6633,3.03369,0,0.000885,0,0
0:0:34.654,56.012,3.17159,0,0.000885,0,0
0:0:35.260,58.3562,3.30259,0,0.000885,0,0
0:0:35.853,61.3499,3.47496,0,0.000885,0,0
0:0:36.451,64.1033,3.62664,0,0.000885,0,0
0:0:37.049,65.9805,3.73696,0,0.000885,0,0
0:0:37.649,69.3255,3.92312,0,0.000885,0,0
0:0:38.245,71.7898,4.06101,0,0.000885,0,0
0:0:38.844,74.0184,4.18512,0,0.000885,0,0
0:0:39.454,77.1855,4.36438,0,0.000885,0,0
0:0:40.059,79.4141,4.49538,0,0.000885,0,0
0:0:40.659,82.4033,4.66086,0,0.000885,0,0
0:0:41.257,84.6319,4.79186,0,0.000885,0,0
0:0:41.856,87.9191,4.97801,0,0.000885,0,0
0:0:42.451,90.2633,5.10902,0,0.000885,0,0
0:0:43.046,93.079,5.26759,0,0.000885,0,0
0:0:43.645,95.4811,5.40549,0,0.000885,0,0
0:0:44.252,98.0032,5.54338,0,0.000885,0,0
0:0:44.859,101.233,5.72954,0,0.000885,0,0
0:0:45.462,103.461,5.85365,0,0.000885,0,0
0:0:46.059,106.272,6.01223,0,0.000885,0,0
0:0:46.656,108.679,6.15012,0,0.000885,0,0
0:0:47.256,111.73,6.32249,0,0.000885,0,0
0:0:47.854,114.31,6.46728,0,0.000885,0,0
0:0:48.453,116.245,6.5776,0,0.000885,0,0
0:0:49.062,119.528,6.76376,0,0.000885,0,0
0:0:49.667,121.992,6.90165,0,0.000885,0,0
0:0:50.267,125.28,7.08781,0,0.000885,0,0
0:0:50.866,127.566,7.21881,0,0.000885,0,0
0:0:51.466,129.91,7.34981,0,0.000885,0,0
0:0:52.060,132.61,7.5015,0,0.000885,0,0
0:0:52.657,135.778,7.68076,0,0.000885,0,0
0:0:53.254,137.77,7.79797,0,0.000885,0,0
0:0:53.862,140.292,7.93587,0,0.000885,0,0
0:0:54.467,143.753,8.13581,0,0.000885,0,0
0:0:55.071,145.746,8.24613,0,0.000885,0,0
0:0:55.668,148.855,8.42539,0,0.000885,0,0
0:0:56.264,151.2,8.55639,0,0.000885,0,0
0:0:56.864,154.367,8.73566,0,0.000885,0,0
0:0:57.462,156.773,8.87355,0,0.000885,0,0
0:0:58.059,159.469,9.02524,0,0.000885,0,0
0:0:58.658,161.933,9.16313,0,0.000885,0,0
0:0:59.267,164.162,9.28724,0,0.000885,0,0
0:0:59.872,167.271,9.4665,0,0.000885,0,0
0:1:0.472,169.735,9.6044,0,0.000885,0,0
0:1:1.071,172.782,9.77677,0,0.000885,0,0
0:1:1.668,175.304,9.92156,0,0.000885,0,0
0:1:2.264,178.182,10.0801,0,0.000885,0,0
0:1:2.861,180.7,10.2249,0,0.000885,0,0
0:1:3.460,182.813,10.3421,0,0.000885,0,0
0:1:4.068,185.807,10.5145,0,0.000885,0,0
0:1:4.673,187.915,10.6317,0,0.000885,0,0
0:1:5.276,191.496,10.8386,0,0.000885,0,0
0:1:5.868,193.431,10.9489,0,0.000885,0,0
0:1:6.461,196.829,11.135,0,0.000885,0,0
0:1:7.056,199.12,11.266,0,0.000885,0,0
0:1:7.651,201.113,11.3832,0,0.000885,0,0
0:1:8.243,204.338,11.5625,0,0.000885,0,0
0:1:8.839,207.154,11.7211,0,0.000885,0,0
0:1:9.444,209.969,11.8797,0,0.000885,0,0
0:1:10.045,212.549,12.0245,0,0.000885,0,0
0:1:10.641,215.014,12.1692,0,0.000885,0,0
0:1:11.244,217.887,12.3278,0,0.000885,0,0
0:1:11.844,220,12.4519,0,0.000885,0,0
0:1:12.446,222.874,12.6105,0,0.000885,0,0
0:1:13.038,225.334,12.7484,0,0.000885,0,0
0:1:13.643,228.269,12.9139,0,0.000885,0,0
0:1:14.247,230.556,13.0449,0,0.000885,0,0
0:1:14.849,233.545,13.2172,0,0.000885,0,0
0:1:15.446,235.951,13.3551,0,0.000885,0,0
0:1:16.038,238.122,13.4724,0,0.000885,0,0
0:1:16.642,241.756,13.6792,0,0.000885,0,0
0:1:17.244,244.105,13.8102,0,0.000885,0,0
0:1:17.840,246.565,13.955,0,0.000885,0,0
0:1:18.442,249.381,14.1136,0,0.000885,0,0
0:1:19.047,252.023,14.2584,0,0.000885,0,0
0:1:19.648,254.776,14.4169,0,0.000885,0,0
0:1:20.242,256.653,14.5204,0,0.000885,0,0
0:1:20.837,260.35,14.7341,0,0.000885,0,0
0:1:21.441,262.169,14.8375,0,0.000885,0,0
0:1:22.032,265.51,15.0237,0,0.000885,0,0
0:1:22.644,268.21,15.1754,0,0.000885,0,0
0:1:23.237,270.848,15.327,0,0.000885,0,0
0:1:23.841,273.37,15.4718,0,0.000885,0,0
0:1:24.443,275.776,15.6028,0,0.000885,0,0
0:1:25.043,278.414,15.7545,0,0.000885,0,0
0:1:25.644,280.758,15.8855,0,0.000885,0,0
0:1:26.235,283.868,16.0648,0,0.000885,0,0
0:1:26.841,286.154,16.1958,0,0.000885,0,0
0:1:27.446,289.793,16.3957,0,0.000885,0,0
0:1:28.039,291.906,16.5198,0,0.000885,0,0
0:1:28.631,294.014,16.637,0,0.000885,0,0
0:1:29.239,297.066,16.8094,0,0.000885,0,0
0:1:29.840,299.001,16.9197,0,0.000885,0,0
0:1:30.444,302.11,17.099,0,0.000885,0,0
0:1:31.041,305.219,17.2714,0,0.000885,0,0
0:1:31.642,307.741,17.4162,0,0.000885,0,0
0:1:32.242,310.028,17.5472,0,0.000885,0,0
0:1:32.833,313.195,17.7264,0,0.000885,0,0
0:1:33.439,315.303,17.8436,0,0.000885,0,0
0:1:34.043,317.888,17.9884,0,0.000885,0,0
0:1:34.647,321.17,18.1746,0,0.000885,0,0
0:1:35.245,323.163,18.2849,0,0.000885,0,0
0:1:35.847,326.157,18.4573,0,0.000885,0,0
0:1:36.436,328.853,18.6089,0,0.000885,0,0
0:1:37.031,331.317,18.7468,0,0.000885,0,0
0:1:37.625,334.306,18.9192,0,0.000885,0,0
0:1:38.241,336.948,19.064,0,0.000885,0,0
0:1:38.848,339.644,19.2226,0,0.000885,0,0
0:1:39.450,342.05,19.3536,0,0.000885,0,0
0:1:40.051,344.688,19.5053,0,0.000885,0,0
0:1:40.647,347.446,19.6638,0,0.000885,0,0
0:1:41.241,349.733,19.788,0,0.000885,0,0
0:1:41.841,352.019,19.919,0,0.000885,0,0
0:1:42.443,355.773,20.1327,0,0.000885,0,0
0:1:43.046,358.411,20.2844,0,0.000885,0,0
0:1:43.639,359.879,20.3671,0,0.000885,0,0
0:1:44.243,363.224,20.5533,0,0.000885,0,0
0:1:44.845,365.453,20.6774,0,0.000885,0,0
0:1:45.442,368.793,20.8704,0,0.000885,0,0
0:1:46.041,371.373,21.0152,0,0.000885,0,0
0:1:46.633,373.895,21.16,0,0.000885,0,0
0:1:47.239,376.48,21.3048,0,0.000885,0,0
0:1:47.843,379.233,21.4634,0,0.000885,0,0
0:1:48.436,381.697,21.6013,0,0.000885,0,0
0:1:49.041,384.162,21.7392,0,0.000885,0,0
0:1:49.642,387.387,21.9184,0,0.000885,0,0
0:1:50.235,390.025,22.0701,0,0.000885,0,0
0:1:50.841,392.604,22.2149,0,0.000885,0,0
0:1:51.445,395.305,22.3666,0,0.000885,0,0
0:1:52.037,397.711,22.5045,0,0.000885,0,0
0:1:52.637,400.585,22.67,0,0.000885,0,0
0:1:53.237,402.226,22.7596,0,0.000885,0,0
0:1:53.843,405.157,22.9251,0,0.000885,0,0
0:1:54.445,407.857,23.0768,0,0.000885,0,0
0:1:55.046,411.727,23.2974,0,0.000885,0,0
0:1:55.648,413.605,23.4077,0,0.000885,0,0
0:1:56.237,416.42,23.5663,0,0.000885,0,0
0:1:56.837,418.707,23.6973,0,0.000885,0,0
0:1:57.443,421.171,23.8352,0,0.000885,0,0
0:1:58.035,424.454,24.0213,0,0.000885,0,0
0:1:58.641,426.095,24.111,0,0.000885,0,0
0:1:59.247,429.32,24.2971,0,0.000885,0,0
0:1:59.847,432.02,24.4488,0,0.000885,0,0
0:2:0.443,435.539,24.6488,0,0.000885,0,0
0:2:1.043,437.767,24.7729,0,0.000885,0,0
0:2:1.636,440.174,24.9108,0,0.000885,0,0
0:2:2.241,442.869,25.0624,0,0.000885,0,0
0:2:2.844,445.569,25.2141,0,0.000885,0,0
0:2:3.436,447.678,25.3313,0,0.000885,0,0
0:2:4.044,450.729,25.5037,0,0.000885,0,0
0:2:4.649,453.661,25.6692,0,0.000885,0,0
0:2:5.251,455.832,25.7933,0,0.000885,0,0
0:2:5.845,459.177,25.9863,0,0.000885,0,0
0:2:6.449,461.285,26.1036,0,0.000885,0,0
0:2:7.039,463.571,26.2346,0,0.000885,0,0
0:2:7.642,466.449,26.3931,0,0.000885,0,0
0:2:8.245,468.851,26.531,0,0.000885,0,0
0:2:8.848,472.312,26.7241,0,0.000885,0,0
0:2:9.451,474.541,26.8551,0,0.000885,0,0
0:2:10.052,477.005,26.993,0,0.000885,0,0
0:2:10.642,479.879,27.1584,0,0.000885,0,0
0:2:11.244,483.046,27.3377,0,0.000885,0,0
0:2:11.833,485.096,27.448,0,0.000885,0,0
0:2:12.428,487.503,27.5859,0,0.000885,0,0
0:2:13.033,490.141,27.7376,0,0.000885,0,0
0:2:13.650,493.134,27.9031,0,0.000885,0,0
0:2:14.255,496.123,28.0755,0,0.000885,0,0
0:2:14.855,498.179,28.1927,0,0.000885,0,0
0:2:15.450,501.288,28.365,0,0.000885,0,0
0:2:16.040,503.748,28.5029,0,0.000885,0,0
0:2:16.646,505.918,28.627,0,0.000885,0,0
0:2:17.238,508.85,28.7925,0,0.000885,0,0
0:2:17.850,511.55,28.9511,0,0.000885,0,0
0:2:18.444,514.308,29.1028,0,0.000885,0,0
0:2:19.045,516.594,29.2338,0,0.000885,0,0
0:2:19.648,519.704,29.4061,0,0.000885,0,0
0:2:20.249,521.581,29.5165,0,0.000885,0,0
0:2:20.843,525.157,29.7164,0,0.000885,0,0
0:2:21.446,527.386,29.8405,0,0.000885,0,0
0:2:22.045,530.201,30.006,0,0.000885,0,0
0:2:22.649,533.191,30.1715,0,0.000885,0,0
0:2:23.241,535.188,30.2887,0,0.000885,0,0
0:2:23.846,538.177,30.4541,0,0.000885,0,0
0:2:24.447,540.463,30.5851,0,0.000885,0,0
0:2:25.044,543.279,30.7437,0,0.000885,0,0
0:2:25.646,546.037,30.9023,0,0.000885,0,0
0:2:26.237,548.323,31.0264,0,0.000885,0,0
0:2:26.852,551.255,31.1919,0,0.000885,0,0
0:2:27.446,553.483,31.3229,0,0.000885,0,0
0:2:28.040,556.241,31.4746,0,0.000885,0,0
0:2:28.645,559.173,31.64,0,0.000885,0,0
0:2:29.250,561.93,31.7986,0,0.000885,0,0
0:2:29.852,564.275,31.9296,0,0.000885,0,0
0:2:30.446,566.33,32.0468,0,0.000885,0,0
0:2:31.039,569.319,32.2192,0,0.000885,0,0
0:2:31.642,571.61,32.3433,0,0.000885,0,0
0:2:32.236,574.95,32.5364,0,0.000885,0,0
0:2:32.847,577.473,32.6811,0,0.000885,0,0
0:2:33.450,580.173,32.8328,0,0.000885,0,0
0:2:34.054,582.868,32.9845,0,0.000885,0,0
0:2:34.656,585.097,33.1086,0,0.000885,0,0
0:2:35.256,587.152,33.2258,0,0.000885,0,0
0:2:35.849,589.318,33.3499,0,0.000885,0,0
0:2:36.440,591.022,33.4465,0,0.000885,0,0
0:2:37.046,593.313,33.5775,0,0.000885,0,0
0:2:37.641,595.248,33.6809,0,0.000885,0,0
0:2:38.237,596.186,33.736,0,0.000885,0,0
0:2:38.847,597.067,33.7843,0,0.000885,0,0
0:2:39.453,595.777,33.7154,0,0.000885,0,0
0:2:40.053,587.503,33.2465,0,0.000885,0,0
0:2:40.642,555.481,31.4332,0,0.000885,0,0
0:2:41.242,509.495,28.8339,0,0.000885,0,0
0:2:41.836,475.657,26.9171,0,0.000885,0,0
0:2:42.437,457.121,25.8691,0,0.000885,0,0
0:2:43.038,435.481,24.6419,0,0.000885,0,0
0:2:43.642,420.464,23.7938,0,0.000885,0,0
0:2:43.703,420.464,23.7938,0,0.000885,0,0

File: DataFile2021-06-29_042543.csv
Test ID:,Date Tested:,Time:,Test Type:,Width (mm):,Depth (mm):,Height (mm):,Age (days):,Weight (kN):,Ramp Rate (MPa/s):,Load at Break (kN):,Stress at Break (MPa):
12,6/29/2021,04:25,Cube,150,150,150,7,8.37,0.01,74.72,3.32
Sample Time,Load (kN),Stress (MPa),Long. Strain,Trans. Strain,Chan1 Deflection (mm),Chan2 Deflection (mm)
0:0:10.105,9.32347,0.413685,0,0.000885,0,0
0:0:10.813,11.4942,0.510212,0,0.000885,0,0
0:0:11.514,11.6143,0.517107,0,0.000885,0,0
0:0:12.196,12.6107,0.558475,0,0.000885,0,0
0:0:12.904,15.075,0.668791,0,0.000885,0,0
0:0:13.619,16.4807,0.730844,0,0.000885,0,0
0:0:14.313,18.0064,0.799792,0,0.000885,0,0
0:0:15.007,19.7634,0.875634,0,0.000885,0,0
0:0:15.706,21.7607,0.965266,0,0.000885,0,0
0:0:16.406,23.6378,1.048,0,0.000885,0,0
0:0:17.102,24.9857,1.11006,0,0.000885,0,0
0:0:17.804,26.6849,1.1859,0,0.000885,0,0
0:0:18.512,28.2684,1.25485,0,0.000885,0,0
0:0:19.211,29.3271,1.30311,0,0.000885,0,0
0:0:19.914,31.3199,1.39274,0,0.000885,0,0
0:0:20.612,33.0191,1.46858,0,0.000885,0,0
0:0:21.312,34.4292,1.53064,0,0.000885,0,0
0:0:22.004,35.5991,1.5789,0,0.000885,0,0
0:0:22.704,37.3606,1.66164,0,0.000885,0,0
0:0:23.419,38.9442,1.73058,0,0.000885,0,0
0:0:24.117,41.1149,1.82711,0,0.000885,0,0
0:0:24.815,42.6407,1.89606,0,0.000885,0,0
0:0:25.513,43.8684,1.95122,0,0.000885,0,0
0:0:26.212,45.4519,2.02016,0,0.000885,0,0
0:0:26.903,46.9777,2.08911,0,0.000885,0,0
0:0:27.617,48.3299,2.15116,0,0.000885,0,0
0:0:28.305,49.8512,2.21322,0,0.000885,0,0
0:0:29.012,51.5549,2.28906,0,0.000885,0,0
0:0:29.716,53.3698,2.3718,0,0.000885,0,0
0:0:30.415,54.9533,2.44074,0,0.000885,0,0
0:0:31.112,56.012,2.48901,0,0.000885,0,0
0:0:31.804,57.947,2.57864,0,0.000885,0,0
0:0:32.516,59.6462,2.64759,0,0.000885,0,0
0:0:33.219,61.1719,2.71653,0,0.000885,0,0
0:0:33.917,62.6977,2.78548,0,0.000885,0,0
0:0:34.614,64.0455,2.84753,0,0.000885,0,0
0:0:35.315,65.6869,2.91648,0,0.000885,0,0
0:0:36.014,67.3906,2.99232,0,0.000885,0,0
0:0:36.708,68.4448,3.04059,0,0.000885,0,0
0:0:37.407,70.2641,3.12333,0,0.000885,0,0
0:0:38.105,71.4963,3.17848,0,0.000885,0,0
0:0:38.821,73.1377,3.24743,0,0.000885,0,0
0:0:39.516,73.9561,3.2888,0,0.000885,0,0
0:0:40.216,74.957,3.33017,0,0.000885,0,0
0:0:40.920,66.6255,2.95785,0,0.000885,0,0
0:0:41.619,67.097,2.98543,0,0.000885,0,0
0:0:42.314,61.0563,2.71653,0,0.000885,0,0
0:0:43.014,56.1277,2.4959,0,0.000885,0,0
0:0:43.718,51.2035,2.27527,0,0.000885,0,0
0:0:44.413,49.9713,2.22011,0,0.000885,0,0
0:0:45.115,48.6191,2.15806,0,0.000885,0,0
0:0:45.809,46.8042,2.08222,0,0.000885,0,0
0:0:46.503,44.8692,1.99258,0,0.000885,0,0
0:0:47.207,43.6371,1.93743,0,0.000885,0,0
0:0:47.916,44.5178,1.9788,0,0.000885,0,0
0:0:48.619,43.9306,1.95122,0,0.000885,0,0
0:0:49.320,43.6371,1.93743,0,0.000885,0,0
0:0:50.005,43.9885,1.95811,0,0.000885,0,0
0:0:50.714,44.7491,1.98569,0,0.000885,0,0
0:0:51.408,45.2784,2.01327,0,0.000885,0,0
0:0:52.101,45.8078,2.03395,0,0.000885,0,0
0:0:52.822,46.3327,2.06153,0,0.000885,0,0
0:0:53.518,46.9777,2.08911,0,0.000885,0,0
0:0:54.222,47.2713,2.1029,0,0.000885,0,0
0:0:54.915,48.152,2.13737,0,0.000885,0,0
0:0:55.621,48.152,2.13737,0,0.000885,0,0
0:0:56.318,48.6813,2.16495,0,0.000885,0,0
0:0:57.009,48.9126,2.17185,0,0.000885,0,0
0:0:57.718,49.6199,2.20632,0,0.000885,0,0
0:0:58.418,49.442,2.19943,0,0.000885,0,0
0:0:59.116,49.3842,2.19253,0,0.000885,0,0
0:0:59.807,49.7934,2.21322,0,0.000885,0,0
0:1:0.506,49.8512,2.21322,0,0.000885,0,0
0:1:1.203,50.4384,2.2408,0,0.000885,0,0
0:1:1.903,50.3806,2.2408,0,0.000885,0,0
0:1:2.617,50.5585,2.24769,0,0.000885,0,0
0:1:3.312,50.732,2.25459,0,0.000885,0,0
0:1:4.016,51.0255,2.26838,0,0.000885,0,0
0:1:4.707,51.2613,2.27527,0,0.000885,0,0
0:1:5.416,51.7862,2.30285,0,0.000885,0,0
0:1:6.110,51.7862,2.30285,0,0.000885,0,0
0:1:6.805,52.022,2.30974,0,0.000885,0,0
0:1:7.520,51.9063,2.30974,0,0.000885,0,0
0:1:8.223,52.1421,2.31664,0,0.000885,0,0
0:1:8.908,51.0834,2.26838,0,0.000885,0,0
0:1:9.620,50.732,2.25459,0,0.000885,0,0
0:1:10.324,50.732,2.25459,0,0.000885,0,0
0:1:11.020,50.9099,2.26148,0,0.000885,0,0
0:1:11.713,50.9099,2.26148,0,0.000885,0,0
0:1:12.422,51.2613,2.27527,0,0.000885,0,0
0:1:13.124,51.377,2.28216,0,0.000885,0,0
0:1:13.818,51.1412,2.27527,0,0.000885,0,0
0:1:14.511,51.3191,2.28216,0,0.000885,0,0
0:1:15.225,50.6163,2.24769,0,0.000885,0,0
0:1:15.918,50.3806,2.2408,0,0.000885,0,0
0:1:16.611,50.0291,2.22011,0,0.000885,0,0
0:1:17.321,50.1448,2.22701,0,0.000885,0,0
0:1:18.014,50.2026,2.2339,0,0.000885,0,0
0:1:18.720,50.7898,2.25459,0,0.000885,0,0
0:1:19.410,50.7898,2.25459,0,0.000885,0,0
0:1:20.118,51.3191,2.28216,0,0.000885,0,0
0:1:20.817,51.2613,2.27527,0,0.000885,0,0
0:1:21.512,51.4348,2.28906,0,0.000885,0,0
0:1:22.214,51.7284,2.29595,0,0.000885,0,0
0:1:22.919,51.9063,2.30974,0,0.000885,0,0
0:1:23.625,51.5549,2.28906,0,0.000885,0,0
0:1:24.326,51.0834,2.26838,0,0.000885,0,0
0:1:25.020,51.377,2.28216,0,0.000885,0,0
0:1:25.715,51.9063,2.30974,0,0.000885,0,0
0:1:26.412,51.6127,2.29595,0,0.000885,0,0
0:1:27.106,51.8485,2.30285,0,0.000885,0,0
0:1:27.823,51.6705,2.29595,0,0.000885,0,0
0:1:28.523,51.7284,2.29595,0,0.000885,0,0
0:1:29.220,51.7862,2.30285,0,0.000885,0,0
0:1:29.924,52.022,2.30974,0,0.000885,0,0
0:1:30.624,51.7284,2.29595,0,0.000885,0,0
0:1:31.319,51.9063,2.30974,0,0.000885,0,0
0:1:32.020,51.6127,2.29595,0,0.000885,0,0
0:1:32.720,51.5549,2.28906,0,0.000885,0,0
0:1:33.426,51.6127,2.29595,0,0.000885,0,0
0:1:34.109,51.377,2.28216,0,0.000885,0,0
0:1:34.824,50.9099,2.26148,0,0.000885,0,0
0:1:35.520,50.4962,2.24769,0,0.000885,0,0
0:1:36.215,50.6163,2.24769,0,0.000885,0,0
0:1:36.920,50.4962,2.24769,0,0.000885,0,0
0:1:37.614,50.5585,2.24769,0,0.000885,0,0
0:1:38.324,50.2026,2.2339,0,0.000885,0,0
0:1:39.021,49.7934,2.21322,0,0.000885,0,0
0:1:39.726,49.5576,2.19943,0,0.000885,0,0
0:1:40.415,49.3842,2.19253,0,0.000885,0,0
0:1:41.114,49.4998,2.19943,0,0.000885,0,0
0:1:41.807,49.442,2.19943,0,0.000885,0,0
0:1:42.512,49.6777,2.20632,0,0.000885,0,0
0:1:43.220,49.5576,2.19943,0,0.000885,0,0
0:1:43.922,49.6199,2.20632,0,0.000885,0,0
0:1:44.626,49.7356,2.21322,0,0.000885,0,0
0:1:45.324,49.6199,2.20632,0,0.000885,0,0
0:1:46.022,49.8512,2.21322,0,0.000885,0,0
0:1:46.712,49.8512,2.21322,0,0.000885,0,0
0:1:47.416,49.3263,2.19253,0,0.000885,0,0
0:1:48.120,49.4998,2.19943,0,0.000885,0,0
0:1:48.814,49.4998,2.19943,0,0.000885,0,0
0:1:49.528,49.3842,2.19253,0,0.000885,0,0
0:1:50.221,49.4998,2.19943,0,0.000885,0,0
0:1:50.917,49.6199,2.20632,0,0.000885,0,0
0:1:51.611,49.3263,2.19253,0,0.000885,0,0
0:1:52.307,49.3263,2.19253,0,0.000885,0,0
0:1:53.013,49.442,2.19943,0,0.000885,0,0
0:1:53.725,49.442,2.19943,0,0.000885,0,0
0:1:54.424,49.3842,2.19253,0,0.000885,0,0
0:1:55.126,48.9749,2.17874,0,0.000885,0,0
0:1:55.817,49.2062,2.18564,0,0.000885,0,0
0:1:56.512,49.2062,2.18564,0,0.000885,0,0
0:1:57.209,49.0327,2.17874,0,0.000885,0,0
0:1:57.926,49.0906,2.17874,0,0.000885,0,0
0:1:58.623,49.2062,2.18564,0,0.000885,0,0
0:1:59.324,49.7356,2.21322,0,0.000885,0,0
0:2:0.017,49.4998,2.19943,0,0.000885,0,0
0:2:0.724,49.8512,2.21322,0,0.000885,0,0
0:2:1.423,49.4998,2.19943,0,0.000885,0,0
0:2:2.115,49.1484,2.18564,0,0.000885,0,0
0:2:2.816,49.1484,2.18564,0,0.000885,0,0
0:2:3.524,49.442,2.19943,0,0.000885,0,0
0:2:4.229,49.5576,2.19943,0,0.000885,0,0
0:2:4.930,49.1484,2.18564,0,0.000885,0,0
0:2:5.627,48.9749,2.17874,0,0.000885,0,0
0:2:6.325,48.5034,2.15806,0,0.000885,0,0
0:2:7.028,48.0942,2.13737,0,0.000885,0,0
0:2:7.725,48.0363,2.13737,0,0.000885,0,0
0:2:8.425,47.8584,2.13048,0,0.000885,0,0
0:2:9.119,47.5648,2.11669,0,0.000885,0,0
0:2:9.825,47.7428,2.12359,0,0.000885,0,0
0:2:10.527,47.8006,2.12359,0,0.000885,0,0
0:2:11.224,45.7455,2.03395,0,0.000885,0,0
0:2:11.916,43.4591,1.93053,0,0.000885,0,0
0:2:12.627,42.6985,1.89606,0,0.000885,0,0
0:2:13.330,42.5206,1.88916,0,0.000885,0,0
0:2:14.030,42.5784,1.88916,0,0.000885,0,0
0:2:14.730,42.4627,1.88916,0,0.000885,0,0
0:2:15.425,42.3471,1.88227,0,0.000885,0,0
0:2:16.124,41.7021,1.85469,0,0.000885,0,0
0:2:16.814,41.8756,1.86158,0,0.000885,0,0
0:2:17.526,41.7599,1.85469,0,0.000885,0,0
0:2:18.232,41.6398,1.84779,0,0.000885,0,0
0:2:18.915,41.1727,1.82711,0,0.000885,0,0
0:2:19.627,41.1149,1.82711,0,0.000885,0,0
0:2:20.326,40.8213,1.81332,0,0.000885,0,0
0:2:21.024,40.5856,1.80643,0,0.000885,0,0
0:2:21.715,40.2342,1.78574,0,0.000885,0,0
0:2:22.424,40.292,1.79264,0,0.000885,0,0
0:2:23.125,40.1763,1.78574,0,0.000885,0,0
0:2:23.831,39.7048,1.76506,0,0.000885,0,0
0:2:24.524,39.9406,1.77195,0,0.000885,0,0
0:2:25.226,39.7048,1.76506,0,0.000885,0,0
0:2:25.921,39.5892,1.75816,0,0.000885,0,0
0:2:26.614,39.9406,1.77195,0,0.000885,0,0
0:2:27.320,39.9984,1.77885,0,0.000885,0,0
0:2:28.028,39.4112,1.75127,0,0.000885,0,0
0:2:28.729,39.8249,1.77195,0,0.000885,0,0
0:2:29.420,39.7671,1.76506,0,0.000885,0,0
0:2:30.116,39.2956,1.74437,0,0.000885,0,0
0:2:30.804,39.4735,1.75127,0,0.000885,0,0
0:2:31.501,39.2378,1.74437,0,0.000885,0,0
0:2:32.193,38.8285,1.72369,0,0.000885,0,0
0:2:32.875,38.5928,1.71679,0,0.000885,0,0
0:2:33.570,38.4727,1.7099,0,0.000885,0,0
0:2:34.255,38.1213,1.69611,0,0.000885,0,0
0:2:34.879,37.712,1.67543,0,0.000885,0,0