Folder: Experiment-Files (part 86)

File: DataFile2021-07-25_062633.csv
Test ID:,Date Tested:,Time:,Test Type:,Diameter Avg. (mm):,Cyl. Corr. Factor:,Height (mm):,Age (days):,Weight (kN):,Break Type:,Ramp Rate (MPa/s):,Load at Break (kN):,Stress at Break (MPa):
12,7/25/2021,06:26,Cylinder,150,1,300,0,3.89,3,0.31,525.1,29.72
Sample Time,Load (kN),Stress (MPa),Long. Strain,Trans. Strain,Chan1 Deflection (mm),Chan2 Deflection (mm)
0:0:12.688,6.57002,0.372317,0,0.000885,0,0
0:0:13.088,9.14999,0.517107,0,0.000885,0,0
0:0:13.484,11.8456,0.668791,0,0.000885,0,0
0:0:13.880,12.2593,0.69637,0,0.000885,0,0
0:0:14.278,16.0714,0.910108,0,0.000885,0,0
0:0:14.677,18.4156,1.04111,0,0.000885,0,0
0:0:15.076,19.2386,1.08937,0,0.000885,0,0
0:0:15.472,21.347,1.20658,0,0.000885,0,0
0:0:15.869,23.6378,1.33758,0,0.000885,0,0
0:0:16.268,26.4536,1.49616,0,0.000885,0,0
0:0:16.667,28.0371,1.58579,0,0.000885,0,0
0:0:17.065,30.7906,1.74437,0,0.000885,0,0
0:0:17.460,33.5485,1.89606,0,0.000885,0,0
0:0:17.860,36.5377,2.06843,0,0.000885,0,0
0:0:18.262,38.7663,2.19253,0,0.000885,0,0
0:0:18.668,41.8177,2.3649,0,0.000885,0,0
0:0:19.073,44.8069,2.53727,0,0.000885,0,0
0:0:19.478,47.8584,2.70964,0,0.000885,0,0
0:0:19.879,50.5585,2.86132,0,0.000885,0,0
0:0:20.280,52.4935,2.97164,0,0.000885,0,0
0:0:20.676,54.9533,3.10954,0,0.000885,0,0
0:0:21.073,57.8892,3.27501,0,0.000885,0,0
0:0:21.472,61.1719,3.46117,0,0.000885,0,0
0:0:21.871,63.1069,3.57148,0,0.000885,0,0
0:0:22.270,65.5712,3.70938,0,0.000885,0,0
0:0:22.668,67.7998,3.83349,0,0.000885,0,0
0:0:23.072,70.0284,3.96449,0,0.000885,0,0
0:0:23.477,72.0834,4.0817,0,0.000885,0,0
0:0:23.881,74.6056,4.21959,0,0.000885,0,0
0:0:24.284,77.1233,4.36438,0,0.000885,0,0
0:0:24.681,79.8812,4.52296,0,0.000885,0,0
0:0:25.078,82.4033,4.66086,0,0.000885,0,0
0:0:25.479,84.9254,4.80565,0,0.000885,0,0
0:0:25.879,87.3319,4.94354,0,0.000885,0,0
0:0:26.274,89.1468,5.04696,0,0.000885,0,0
0:0:26.672,91.5533,5.17796,0,0.000885,0,0
0:0:27.071,93.5461,5.29517,0,0.000885,0,0
0:0:27.471,96.5398,5.46065,0,0.000885,0,0
0:0:27.869,98.7105,5.58475,0,0.000885,0,0
0:0:28.275,100.939,5.70886,0,0.000885,0,0
0:0:28.679,103.168,5.83986,0,0.000885,0,0
0:0:29.082,106.335,6.01912,0,0.000885,0,0
0:0:29.486,109.088,6.17081,0,0.000885,0,0
0:0:29.884,111.379,6.30181,0,0.000885,0,0
0:0:30.280,114.132,6.46039,0,0.000885,0,0
0:0:30.679,117.362,6.63965,0,0.000885,0,0
0:0:31.081,120,6.79134,0,0.000885,0,0
0:0:31.477,122.402,6.92923,0,0.000885,0,0
0:0:31.874,124.457,7.03955,0,0.000885,0,0
0:0:32.273,126.921,7.18434,0,0.000885,0,0
0:0:32.672,129.207,7.30844,0,0.000885,0,0
0:0:33.073,131.436,7.43944,0,0.000885,0,0
0:0:33.479,133.843,7.57044,0,0.000885,0,0
0:0:33.884,135.951,7.69455,0,0.000885,0,0
0:0:34.288,138.357,7.83244,0,0.000885,0,0
0:0:34.690,140.937,7.97723,0,0.000885,0,0
0:0:35.089,143.402,8.11513,0,0.000885,0,0
0:0:35.487,146.04,8.26681,0,0.000885,0,0
0:0:35.882,147.565,8.34955,0,0.000885,0,0
0:0:36.281,151.026,8.5495,0,0.000885,0,0
0:0:36.681,154.251,8.72876,0,0.000885,0,0
0:0:37.079,157.24,8.90113,0,0.000885,0,0
0:0:37.476,159.647,9.03213,0,0.000885,0,0
0:0:37.874,162.284,9.18382,0,0.000885,0,0
0:0:38.276,165.336,9.35619,0,0.000885,0,0
0:0:38.684,168.094,9.51477,0,0.000885,0,0
0:0:39.088,170.732,9.65955,0,0.000885,0,0
0:0:39.492,173.018,9.79056,0,0.000885,0,0
0:0:39.889,175.425,9.92845,0,0.000885,0,0
0:0:40.289,177.889,10.0663,0,0.000885,0,0
0:0:40.690,180.117,10.1905,0,0.000885,0,0
0:0:41.086,182.226,10.3146,0,0.000885,0,0
0:0:41.484,184.223,10.4249,0,0.000885,0,0
0:0:41.881,186.625,10.5628,0,0.000885,0,0
0:0:42.280,188.974,10.6938,0,0.000885,0,0
0:0:42.682,191.202,10.8179,0,0.000885,0,0
0:0:43.077,193.84,10.9696,0,0.000885,0,0
0:0:43.480,196.536,11.1212,0,0.000885,0,0
0:0:43.882,199.058,11.266,0,0.000885,0,0
0:0:44.283,201.58,11.4039,0,0.000885,0,0
0:0:44.684,204.516,11.5763,0,0.000885,0,0
0:0:45.077,206.157,11.6659,0,0.000885,0,0
0:0:45.471,208.737,11.8107,0,0.000885,0,0
0:0:45.870,211.553,11.9693,0,0.000885,0,0
0:0:46.267,214.191,12.121,0,0.000885,0,0
0:0:46.661,216.771,12.2658,0,0.000885,0,0
0:0:47.054,218.941,12.3899,0,0.000885,0,0
0:0:47.449,221.584,12.5416,0,0.000885,0,0
0:0:47.848,224.222,12.6864,0,0.000885,0,0
0:0:48.243,226.272,12.8036,0,0.000885,0,0
0:0:48.648,228.501,12.9277,0,0.000885,0,0
0:0:49.050,231.023,13.0725,0,0.000885,0,0
0:0:49.451,233.665,13.2241,0,0.000885,0,0
0:0:49.851,236.125,13.362,0,0.000885,0,0
0:0:50.247,238.354,13.4861,0,0.000885,0,0
0:0:50.640,240.644,13.6171,0,0.000885,0,0
0:0:51.034,242.637,13.7275,0,0.000885,0,0
0:0:51.440,244.981,13.8654,0,0.000885,0,0
0:0:51.838,247.624,14.0101,0,0.000885,0,0
0:0:52.242,249.91,14.1411,0,0.000885,0,0
0:0:52.635,252.316,14.279,0,0.000885,0,0
0:0:53.038,254.425,14.3963,0,0.000885,0,0
0:0:53.440,257.183,14.5548,0,0.000885,0,0
0:0:53.842,259.589,14.6927,0,0.000885,0,0
0:0:54.242,262.401,14.8513,0,0.000885,0,0
0:0:54.637,265.158,15.003,0,0.000885,0,0
0:0:55.041,267.387,15.134,0,0.000885,0,0
0:0:55.441,270.087,15.2857,0,0.000885,0,0
0:0:55.836,271.964,15.3891,0,0.000885,0,0
0:0:56.240,274.776,15.5477,0,0.000885,0,0
0:0:56.634,277.24,15.6856,0,0.000885,0,0
0:0:57.040,279.882,15.8373,0,0.000885,0,0
0:0:57.438,282.111,15.9614,0,0.000885,0,0
0:0:57.843,284.219,16.0855,0,0.000885,0,0
0:0:58.247,286.626,16.2165,0,0.000885,0,0
0:0:58.649,289.384,16.375,0,0.000885,0,0
0:0:59.051,291.963,16.5198,0,0.000885,0,0
0:0:59.450,294.601,16.6715,0,0.000885,0,0
0:0:59.844,297.59,16.837,0,0.000885,0,0
0:1:0.237,298.471,16.8922,0,0.000885,0,0
0:1:0.634,301.287,17.0507,0,0.000885,0,0
0:1:1.040,303.4,17.1679,0,0.000885,0,0
0:1:1.435,306.095,17.3196,0,0.000885,0,0
0:1:1.838,308.266,17.4437,0,0.000885,0,0
0:1:2.240,310.379,17.5609,0,0.000885,0,0
0:1:2.640,312.723,17.6988,0,0.000885,0,0
0:1:3.037,315.01,17.8229,0,0.000885,0,0
0:1:3.441,317.71,17.9815,0,0.000885,0,0
0:1:3.842,319.881,18.0987,0,0.000885,0,0
0:1:4.242,322.46,18.2504,0,0.000885,0,0
0:1:4.640,325.218,18.4021,0,0.000885,0,0
0:1:5.038,327.62,18.54,0,0.000885,0,0
0:1:5.440,330.845,18.7193,0,0.000885,0,0
0:1:5.834,333.897,18.8916,0,0.000885,0,0
0:1:6.230,336.597,19.0502,0,0.000885,0,0
0:1:6.638,339.408,19.2088,0,0.000885,0,0
0:1:7.031,342.344,19.3743,0,0.000885,0,0
0:1:7.436,344.924,19.5191,0,0.000885,0,0
0:1:7.841,347.446,19.6638,0,0.000885,0,0
0:1:8.241,349.733,19.788,0,0.000885,0,0
0:1:8.647,352.197,19.9327,0,0.000885,0,0
0:1:9.048,354.541,20.0637,0,0.000885,0,0
0:1:9.448,357.241,20.2154,0,0.000885,0,0
0:1:9.844,359.118,20.3188,0,0.000885,0,0
0:1:10.242,361.698,20.4705,0,0.000885,0,0
0:1:10.635,364.514,20.6291,0,0.000885,0,0
0:1:11.038,366.916,20.7601,0,0.000885,0,0
0:1:11.435,369.558,20.9118,0,0.000885,0,0
0:1:11.842,372.547,21.0842,0,0.000885,0,0
0:1:12.236,375.07,21.2221,0,0.000885,0,0
0:1:12.640,377.062,21.3393,0,0.000885,0,0
0:1:13.042,378.824,21.4358,0,0.000885,0,0
0:1:13.445,381.697,21.6013,0,0.000885,0,0
0:1:13.844,383.397,21.6978,0,0.000885,0,0
0:1:14.247,385.567,21.8219,0,0.000885,0,0
0:1:14.640,387.387,21.9184,0,0.000885,0,0
0:1:15.035,390.082,22.077,0,0.000885,0,0
0:1:15.443,392.898,22.2356,0,0.000885,0,0
0:1:15.837,395.714,22.3942,0,0.000885,0,0
0:1:16.240,398.356,22.539,0,0.000885,0,0
0:1:16.644,401.23,22.7044,0,0.000885,0,0
0:1:17.041,403.752,22.8492,0,0.000885,0,0
0:1:17.438,406.505,23.0009,0,0.000885,0,0
0:1:17.841,409.085,23.1526,0,0.000885,0,0
0:1:18.244,411.434,23.2836,0,0.000885,0,0
0:1:18.647,414.129,23.4353,0,0.000885,0,0
0:1:19.048,416.358,23.5594,0,0.000885,0,0
0:1:19.449,419,23.7111,0,0.000885,0,0
0:1:19.842,420.526,23.7938,0,0.000885,0,0
0:1:20.236,423.048,23.9386,0,0.000885,0,0
0:1:20.643,425.041,24.0489,0,0.000885,0,0
0:1:21.042,427.443,24.1868,0,0.000885,0,0
0:1:21.444,430.259,24.3454,0,0.000885,0,0
0:1:21.837,432.665,24.4833,0,0.000885,0,0
0:1:22.242,435.187,24.6281,0,0.000885,0,0
0:1:22.640,438.177,24.7935,0,0.000885,0,0
0:1:23.045,440.699,24.9383,0,0.000885,0,0
0:1:23.450,442.696,25.0487,0,0.000885,0,0
0:1:23.851,444.044,25.1245,0,0.000885,0,0
0:1:24.252,446.566,25.2693,0,0.000885,0,0
0:1:24.652,448.852,25.4003,0,0.000885,0,0
0:1:25.045,452.371,25.6002,0,0.000885,0,0
0:1:25.438,455.48,25.7726,0,0.000885,0,0
0:1:25.844,458.647,25.9519,0,0.000885,0,0
0:1:26.242,460.934,26.0829,0,0.000885,0,0
0:1:26.636,463.282,26.2139,0,0.000885,0,0
0:1:27.040,465.862,26.3656,0,0.000885,0,0
0:1:27.444,468.322,26.5034,0,0.000885,0,0
0:1:27.841,470.844,26.6413,0,0.000885,0,0
0:1:28.238,472.197,26.7241,0,0.000885,0,0
0:1:28.641,474.95,26.8758,0,0.000885,0,0
0:1:29.044,477.414,27.0137,0,0.000885,0,0
0:1:29.444,479.234,27.1171,0,0.000885,0,0
0:1:29.844,481.698,27.2619,0,0.000885,0,0
0:1:30.239,484.687,27.4273,0,0.000885,0,0
0:1:30.644,487.267,27.5721,0,0.000885,0,0
0:1:31.046,489.144,27.6825,0,0.000885,0,0
0:1:31.445,490.728,27.7721,0,0.000885,0,0
0:1:31.841,492.899,27.8893,0,0.000885,0,0
0:1:32.244,494.54,27.9858,0,0.000885,0,0
0:1:32.638,496.653,28.103,0,0.000885,0,0
0:1:33.040,498.703,28.2202,0,0.000885,0,0
0:1:33.444,501.404,28.3719,0,0.000885,0,0
0:1:33.845,504.744,28.565,0,0.000885,0,0
0:1:34.247,506.741,28.6753,0,0.000885,0,0
0:1:34.640,509.143,28.8132,0,0.000885,0,0
0:1:35.038,511.723,28.958,0,0.000885,0,0
0:1:35.443,514.601,29.1235,0,0.000885,0,0
0:1:35.839,517.239,29.2682,0,0.000885,0,0
0:1:36.241,519.761,29.413,0,0.000885,0,0
0:1:36.639,521.812,29.5302,0,0.000885,0,0
0:1:37.045,523.338,29.613,0,0.000885,0,0
0:1:37.439,524.041,29.6544,0,0.000885,0,0
0:1:37.830,524.454,29.675,0,0.000885,0,0
0:1:38.232,525.041,29.7095,0,0.000885,0,0
0:1:38.634,525.099,29.7164,0,0.000885,0,0
0:1:39.034,524.748,29.6957,0,0.000885,0,0
0:1:39.434,523.338,29.613,0,0.000885,0,0
0:1:39.838,520.464,29.4544,0,0.000885,0,0
0:1:40.242,517.181,29.2682,0,0.000885,0,0
0:1:40.639,514.014,29.089,0,0.000885,0,0
0:1:41.042,510.554,28.889,0,0.000885,0,0
0:1:41.444,507.386,28.7098,0,0.000885,0,0
0:1:41.845,502.049,28.4133,0,0.000885,0,0
0:1:42.243,493.37,27.9169,0,0.000885,0,0
0:1:42.638,479.234,27.1171,0,0.000885,0,0
0:1:43.039,461.463,26.1104,0,0.000885,0,0
0:1:43.442,445.743,25.221,0,0.000885,0,0
0:1:43.842,422.692,23.9179,0,0.000885,0,0
0:1:44.242,402.226,22.7596,0,0.000885,0,0
0:1:44.640,391.786,22.1735,0,0.000885,0,0
0:1:45.043,385.625,21.8219,0,0.000885,0,0
0:1:45.447,379.175,21.4565,0,0.000885,0,0
0:1:45.842,374.367,21.1876,0,0.000885,0,0
0:1:46.235,368.62,20.8566,0,0.000885,0,0
0:1:46.356,368.62,20.8566,0,0.000885,0,0

File: DataFile2021-07-25_063232.csv
Test ID:,Date Tested:,Time:,Test Type:,Diameter Avg. (mm):,Cyl. Corr. Factor:,Height (mm):,Age (days):,Weight (kN):,Break Type:,Ramp Rate (MPa/s):,Load at Break (kN):,Stress at Break (MPa):
12,7/25/2021,06:32,Cylinder,150,1,300,0,3.89,3,0.35,490.67,27.77
Sample Time,Load (kN),Stress (MPa),Long. Strain,Trans. Strain,Chan1 Deflection (mm),Chan2 Deflection (mm)
0:0:3.202,5.39569,0.303369,0,0.000885,0,0
0:0:3.597,7.09491,0.399896,0,0.000885,0,0
0:0:3.994,8.03349,0.455054,0,0.000885,0,0
0:0:4.394,12.6685,0.717055,0,0.000885,0,0
0:0:4.793,14.6613,0.827371,0,0.000885,0,0
0:0:5.190,16.7164,0.944582,0,0.000885,0,0
0:0:5.587,19.4699,1.10316,0,0.000885,0,0
0:0:5.985,21.4093,1.21348,0,0.000885,0,0
0:0:6.386,23.5177,1.33069,0,0.000885,0,0
0:0:6.783,26.8628,1.51685,0,0.000885,0,0
0:0:7.179,28.6199,1.62027,0,0.000885,0,0
0:0:7.578,31.7292,1.79264,0,0.000885,0,0
0:0:7.978,34.8385,1.9719,0,0.000885,0,0
0:0:8.377,37.8277,2.13737,0,0.000885,0,0
0:0:8.783,40.937,2.31664,0,0.000885,0,0
0:0:9.187,43.6371,2.46832,0,0.000885,0,0
0:0:9.589,45.5142,2.57864,0,0.000885,0,0
0:0:9.993,47.9741,2.71653,0,0.000885,0,0
0:0:10.389,49.7934,2.81996,0,0.000885,0,0
0:0:10.786,51.9063,2.93717,0,0.000885,0,0
0:0:11.183,54.3083,3.07506,0,0.000885,0,0
0:0:11.585,57.0662,3.22675,0,0.000885,0,0
0:0:11.983,59.5305,3.37154,0,0.000885,0,0
0:0:12.378,62.3463,3.53012,0,0.000885,0,0
0:0:12.776,65.0419,3.6818,0,0.000885,0,0
0:0:13.175,67.2705,3.80591,0,0.000885,0,0
0:0:13.575,70.144,3.97138,0,0.000885,0,0
0:0:13.982,72.4348,4.09549,0,0.000885,0,0
0:0:14.386,74.7791,4.23338,0,0.000885,0,0
0:0:14.790,77.2434,4.37128,0,0.000885,0,0
0:0:15.192,80.0591,4.52986,0,0.000885,0,0
0:0:15.589,82.3455,4.66086,0,0.000885,0,0
0:0:15.989,85.1034,4.81254,0,0.000885,0,0
0:0:16.383,87.3898,4.94354,0,0.000885,0,0
0:0:16.783,88.7376,5.01938,0,0.000885,0,0
0:0:17.184,91.6111,5.18486,0,0.000885,0,0
0:0:17.581,93.8975,5.31586,0,0.000885,0,0
0:0:17.978,96.4819,5.46065,0,0.000885,0,0
0:0:18.376,99.1775,5.61233,0,0.000885,0,0
0:0:18.778,101.878,5.76402,0,0.000885,0,0
0:0:19.184,104.164,5.89502,0,0.000885,0,0
0:0:19.588,106.277,6.01223,0,0.000885,0,0
0:0:19.991,108.857,6.15702,0,0.000885,0,0
0:0:20.392,111.085,6.28802,0,0.000885,0,0
0:0:20.792,114.368,6.47418,0,0.000885,0,0
0:0:21.191,116.655,6.59828,0,0.000885,0,0
0:0:21.587,119.297,6.74997,0,0.000885,0,0
0:0:21.984,121.583,6.88097,0,0.000885,0,0
0:0:22.385,123.576,6.99128,0,0.000885,0,0
0:0:22.784,126.334,7.14986,0,0.000885,0,0
0:0:23.182,129.617,7.33602,0,0.000885,0,0
0:0:23.587,131.965,7.46702,0,0.000885,0,0
0:0:23.993,134.661,7.61871,0,0.000885,0,0
0:0:24.395,137.125,7.7566,0,0.000885,0,0
0:0:24.798,139.59,7.90139,0,0.000885,0,0
0:0:25.195,141.698,8.0186,0,0.000885,0,0
0:0:25.593,144.34,8.17029,0,0.000885,0,0
0:0:25.993,146.862,8.30818,0,0.000885,0,0
0:0:26.393,148.971,8.43229,0,0.000885,0,0
0:0:26.791,151.787,8.59087,0,0.000885,0,0
0:0:27.187,153.255,8.6736,0,0.000885,0,0
0:0:27.585,155.363,8.79082,0,0.000885,0,0
0:0:27.984,158.121,8.94939,0,0.000885,0,0
0:0:28.384,160.879,9.10108,0,0.000885,0,0
0:0:28.789,163.459,9.25276,0,0.000885,0,0
0:0:29.194,166.097,9.39755,0,0.000885,0,0
0:0:29.596,168.387,9.52855,0,0.000885,0,0
0:0:30.001,171.261,9.69403,0,0.000885,0,0
0:0:30.399,174.25,9.8595,0,0.000885,0,0
0:0:30.797,176.363,9.97671,0,0.000885,0,0
0:0:31.194,178.885,10.1215,0,0.000885,0,0
0:0:31.592,180.936,10.2387,0,0.000885,0,0
0:0:31.993,183.578,10.3904,0,0.000885,0,0
0:0:32.391,186.567,10.5559,0,0.000885,0,0
0:0:32.789,188.738,10.68,0,0.000885,0,0
0:0:33.187,190.789,10.7972,0,0.000885,0,0
0:0:33.588,193.84,10.9696,0,0.000885,0,0
0:0:33.992,197.007,11.1488,0,0.000885,0,0
0:0:34.393,199.12,11.266,0,0.000885,0,0
0:0:34.794,201.522,11.4039,0,0.000885,0,0
0:0:35.190,203.751,11.528,0,0.000885,0,0
0:0:35.588,206.273,11.6728,0,0.000885,0,0
0:0:35.983,207.914,11.7625,0,0.000885,0,0
0:0:36.376,210.614,11.921,0,0.000885,0,0
0:0:36.770,213.43,12.0796,0,0.000885,0,0
0:0:37.169,215.832,12.2106,0,0.000885,0,0
0:0:37.575,218.061,12.3416,0,0.000885,0,0
0:0:37.970,220.116,12.4588,0,0.000885,0,0
0:0:38.373,222.518,12.5898,0,0.000885,0,0
0:0:38.776,225.747,12.776,0,0.000885,0,0
0:0:39.179,228.207,12.9139,0,0.000885,0,0
0:0:39.579,230.436,13.038,0,0.000885,0,0
0:0:39.981,232.9,13.1828,0,0.000885,0,0
0:0:40.374,235.186,13.3069,0,0.000885,0,0
0:0:40.769,237.709,13.4517,0,0.000885,0,0
0:0:41.163,240.466,13.6103,0,0.000885,0,0
0:0:41.562,242.873,13.7413,0,0.000885,0,0
0:0:41.954,245.569,13.8998,0,0.000885,0,0
0:0:42.348,246.979,13.9757,0,0.000885,0,0
0:0:42.755,249.501,14.1205,0,0.000885,0,0
0:0:43.152,252.726,14.2997,0,0.000885,0,0
0:0:43.557,255.128,14.4376,0,0.000885,0,0
0:0:43.960,257.419,14.5686,0,0.000885,0,0
0:0:44.362,259.821,14.6996,0,0.000885,0,0
0:0:44.762,262.521,14.8582,0,0.000885,0,0
0:0:45.163,265.394,15.0168,0,0.000885,0,0
0:0:45.557,267.503,15.1409,0,0.000885,0,0
0:0:45.961,270.025,15.2788,0,0.000885,0,0
0:0:46.364,272.489,15.4167,0,0.000885,0,0
0:0:46.762,275.131,15.5684,0,0.000885,0,0
0:0:47.158,277.124,15.6787,0,0.000885,0,0
0:0:47.552,279.762,15.8304,0,0.000885,0,0
0:0:47.956,281.755,15.9476,0,0.000885,0,0
0:0:48.361,284.513,16.0993,0,0.000885,0,0
0:0:48.760,286.448,16.2096,0,0.000885,0,0
0:0:49.163,289.263,16.3682,0,0.000885,0,0
0:0:49.563,291.55,16.4992,0,0.000885,0,0
0:0:49.963,294.014,16.637,0,0.000885,0,0
0:0:50.373,296.127,16.7543,0,0.000885,0,0
0:0:50.770,298.823,16.9128,0,0.000885,0,0
0:0:51.164,302.168,17.099,0,0.000885,0,0
0:0:51.564,304.103,17.2093,0,0.000885,0,0
0:0:51.959,306.625,17.3541,0,0.000885,0,0
0:0:52.357,308.093,17.4368,0,0.000885,0,0
0:0:52.753,310.908,17.5954,0,0.000885,0,0
0:0:53.159,313.546,17.7402,0,0.000885,0,0
0:0:53.561,315.481,17.8505,0,0.000885,0,0
0:0:53.962,318.706,18.0367,0,0.000885,0,0
0:0:54.365,321.58,18.1953,0,0.000885,0,0
0:0:54.765,323.808,18.3263,0,0.000885,0,0
0:0:55.165,326.451,18.4711,0,0.000885,0,0
0:0:55.560,329.088,18.6227,0,0.000885,0,0
0:0:55.966,331.846,18.7813,0,0.000885,0,0
0:0:56.376,333.897,18.8916,0,0.000885,0,0
0:0:56.780,336.477,19.0433,0,0.000885,0,0
0:0:57.174,339.528,19.2157,0,0.000885,0,0
0:0:57.567,342.518,19.3812,0,0.000885,0,0
0:0:57.974,344.982,19.5191,0,0.000885,0,0
0:0:58.371,347.504,19.6638,0,0.000885,0,0
0:0:58.774,349.733,19.788,0,0.000885,0,0
0:0:59.176,352.842,19.9672,0,0.000885,0,0
0:0:59.576,355.186,20.0982,0,0.000885,0,0
0:0:59.977,356.948,20.2016,0,0.000885,0,0
0:1:0.371,360.173,20.3809,0,0.000885,0,0
0:1:0.763,362.93,20.5395,0,0.000885,0,0
0:1:1.168,364.981,20.6567,0,0.000885,0,0
0:1:1.566,367.623,20.8015,0,0.000885,0,0
0:1:1.961,368.971,20.8773,0,0.000885,0,0
0:1:2.354,370.555,20.967,0,0.000885,0,0
0:1:2.750,373.486,21.1324,0,0.000885,0,0
0:1:3.156,376.244,21.291,0,0.000885,0,0
0:1:3.562,378.063,21.3944,0,0.000885,0,0
0:1:3.967,380.995,21.5599,0,0.000885,0,0
0:1:4.367,382.93,21.6702,0,0.000885,0,0
0:1:4.767,385.625,21.8219,0,0.000885,0,0
0:1:5.165,387.622,21.9322,0,0.000885,0,0
0:1:5.561,390.318,22.0908,0,0.000885,0,0
0:1:5.957,393.076,22.2425,0,0.000885,0,0
0:1:6.359,395.892,22.4011,0,0.000885,0,0
0:1:6.765,398.12,22.5321,0,0.000885,0,0
0:1:7.175,400.171,22.6424,0,0.000885,0,0
0:1:7.578,402.577,22.7803,0,0.000885,0,0
0:1:7.972,404.57,22.8975,0,0.000885,0,0
0:1:8.378,406.683,23.0147,0,0.000885,0,0
0:1:8.776,409.321,23.1595,0,0.000885,0,0
0:1:9.181,411.314,23.2767,0,0.000885,0,0
0:1:9.582,414.192,23.4353,0,0.000885,0,0
0:1:9.984,417.942,23.649,0,0.000885,0,0
0:1:10.381,420.877,23.8145,0,0.000885,0,0
0:1:10.777,423.982,23.9938,0,0.000885,0,0
0:1:11.171,427.149,24.173,0,0.000885,0,0
0:1:11.574,430.259,24.3454,0,0.000885,0,0
0:1:11.978,432.194,24.4557,0,0.000885,0,0
0:1:12.376,434.716,24.6005,0,0.000885,0,0
0:1:12.769,436.829,24.7177,0,0.000885,0,0
0:1:13.174,439.351,24.8625,0,0.000885,0,0
0:1:13.578,441.05,24.959,0,0.000885,0,0
0:1:13.980,443.75,25.1107,0,0.000885,0,0
0:1:14.380,445.801,25.2279,0,0.000885,0,0
0:1:14.782,448.149,25.3589,0,0.000885,0,0
0:1:15.175,450.436,25.4899,0,0.000885,0,0
0:1:15.569,452.371,25.6002,0,0.000885,0,0
0:1:15.967,454.657,25.7312,0,0.000885,0,0
0:1:16.374,456.654,25.8416,0,0.000885,0,0
0:1:16.778,459.056,25.9794,0,0.000885,0,0
0:1:17.180,461.757,26.1311,0,0.000885,0,0
0:1:17.578,464.221,26.269,0,0.000885,0,0
0:1:17.976,466.387,26.3931,0,0.000885,0,0
0:1:18.368,469.554,26.5724,0,0.000885,0,0
0:1:18.774,472.312,26.7241,0,0.000885,0,0
0:1:19.175,474.95,26.8758,0,0.000885,0,0
0:1:19.575,476.827,26.9861,0,0.000885,0,0
0:1:19.977,479.118,27.1102,0,0.000885,0,0
0:1:20.379,481.347,27.2412,0,0.000885,0,0
0:1:20.773,480.057,27.1653,0,0.000885,0,0
0:1:21.178,470.964,26.6482,0,0.000885,0,0
0:1:21.574,473.838,26.8137,0,0.000885,0,0
0:1:21.977,478.998,27.1033,0,0.000885,0,0
0:1:22.377,483.104,27.3377,0,0.000885,0,0
0:1:22.773,485.977,27.5032,0,0.000885,0,0
0:1:23.168,489.144,27.6825,0,0.000885,0,0
0:1:23.574,491.021,27.7859,0,0.000885,0,0
0:1:23.976,490.083,27.7307,0,0.000885,0,0
0:1:24.377,485.452,27.4687,0,0.000885,0,0
0:1:24.776,477.708,27.0343,0,0.000885,0,0
0:1:25.175,468.616,26.5172,0,0.000885,0,0
0:1:25.578,462.05,26.1449,0,0.000885,0,0
0:1:25.969,457.882,25.9105,0,0.000885,0,0
0:1:26.374,453.545,25.6623,0,0.000885,0,0
0:1:26.768,447.269,25.3107,0,0.000885,0,0
0:1:27.175,438.354,24.8073,0,0.000885,0,0
0:1:27.575,422.87,23.9317,0,0.000885,0,0
0:1:27.968,397.004,22.4631,0,0.000885,0,0
0:1:28.364,357.299,20.2223,0,0.000885,0,0
0:1:28.482,357.299,20.2223,0,0.000885,0,0