Folder: Experiment-Files (part 10)

File: DataFile2021-06-07_035438.csv
Test ID:,Date Tested:,Time:,Test Type:,Diameter Avg. (mm):,Cyl. Corr. Factor:,Height (mm):,Age (days):,Weight (kN):,Break Type:,Ramp Rate (MPa/s):,Load at Break (kN):,Stress at Break (MPa):
12,6/7/2021,03:54,Cylinder,100,1,200,0,3.6,3,0.25,586.92,74.73
Sample Time,Load (kN),Stress (MPa),Long. Strain,Trans. Strain,Chan1 Deflection (mm),Chan2 Deflection (mm)
0:0:14.971,5.80493,0.737739,0,0.000885,0,0
0:0:16.358,8.85641,1.13074,0,0.000885,0,0
0:0:17.760,9.96846,1.26864,0,0.000885,0,0
0:0:19.160,13.0778,1.66853,0,0.000885,0,0
0:0:20.565,15.1328,1.92364,0,0.000885,0,0
0:0:21.974,18.5936,2.3649,0,0.000885,0,0
0:0:23.368,21.6406,2.7579,0,0.000885,0,0
0:0:24.759,24.5141,3.12333,0,0.000885,0,0
0:0:26.167,27.8014,3.53701,0,0.000885,0,0
0:0:27.568,30.6749,3.90243,0,0.000885,0,0
0:0:28.962,33.3127,4.24028,0,0.000885,0,0
0:0:30.354,35.5991,4.52986,0,0.000885,0,0
0:0:31.768,38.2992,4.87459,0,0.000885,0,0
0:0:33.164,41.1149,5.23312,0,0.000885,0,0
0:0:34.558,44.2242,5.63302,0,0.000885,0,0
0:0:35.974,46.0391,5.86054,0,0.000885,0,0
0:0:37.375,49.0906,6.25354,0,0.000885,0,0
0:0:38.769,51.7284,6.58449,0,0.000885,0,0
0:0:40.159,54.722,6.9706,0,0.000885,0,0
0:0:41.575,57.7112,7.34981,0,0.000885,0,0
0:0:42.971,60.2334,7.66697,0,0.000885,0,0
0:0:44.363,63.0491,8.0255,0,0.000885,0,0
0:0:45.764,65.6869,8.36334,0,0.000885,0,0
0:0:47.170,68.2713,8.69429,0,0.000885,0,0
0:0:48.567,71.2027,9.06661,0,0.000885,0,0
0:0:49.958,74.0184,9.42513,0,0.000885,0,0
0:0:51.373,76.7719,9.77677,0,0.000885,0,0
0:0:52.768,79.0004,10.0595,0,0.000885,0,0
0:0:54.162,82.5234,10.5076,0,0.000885,0,0
0:0:55.571,85.3347,10.8661,0,0.000885,0,0
0:0:56.980,88.2082,11.2316,0,0.000885,0,0
0:0:58.375,90.4991,11.5211,0,0.000885,0,0
0:0:59.766,92.9011,11.8314,0,0.000885,0,0
0:1:1.176,96.0682,12.2313,0,0.000885,0,0
0:1:2.576,98.7105,12.5691,0,0.000885,0,0
0:1:3.972,101.642,12.9415,0,0.000885,0,0
0:1:5.363,103.928,13.231,0,0.000885,0,0
0:1:6.779,106.45,13.5551,0,0.000885,0,0
0:1:8.175,109.733,13.9688,0,0.000885,0,0
0:1:9.566,112.375,14.3066,0,0.000885,0,0
0:1:10.974,115.422,14.6996,0,0.000885,0,0
0:1:12.374,118.18,15.0444,0,0.000885,0,0
0:1:13.770,120.702,15.3684,0,0.000885,0,0
0:1:15.161,123.403,15.7132,0,0.000885,0,0
0:1:16.576,126.628,16.1199,0,0.000885,0,0
0:1:17.971,129.03,16.4302,0,0.000885,0,0
0:1:19.365,131.787,16.7818,0,0.000885,0,0
0:1:20.764,134.545,17.1335,0,0.000885,0,0
0:1:22.173,137.183,17.4644,0,0.000885,0,0
0:1:23.568,139.941,17.8161,0,0.000885,0,0
0:1:24.959,142.343,18.1263,0,0.000885,0,0
0:1:26.373,145.746,18.5538,0,0.000885,0,0
0:1:27.771,148.326,18.8847,0,0.000885,0,0
0:1:29.162,150.732,19.195,0,0.000885,0,0
0:1:30.562,154.015,19.6087,0,0.000885,0,0
0:1:31.969,156.48,19.9258,0,0.000885,0,0
0:1:33.365,158.766,20.2154,0,0.000885,0,0
0:1:34.765,161.697,20.5877,0,0.000885,0,0
0:1:36.174,164.397,20.9325,0,0.000885,0,0
0:1:37.574,167.387,21.3117,0,0.000885,0,0
0:1:38.970,170.438,21.6978,0,0.000885,0,0
0:1:40.367,172.782,22.0012,0,0.000885,0,0
0:1:41.783,176.012,22.408,0,0.000885,0,0
0:1:43.179,179.059,22.801,0,0.000885,0,0
0:1:44.571,180.994,23.0423,0,0.000885,0,0
0:1:45.972,183.752,23.3939,0,0.000885,0,0
0:1:47.377,186.452,23.7386,0,0.000885,0,0
0:1:48.772,189.147,24.0834,0,0.000885,0,0
0:1:50.165,192.257,24.4764,0,0.000885,0,0
0:1:51.571,194.721,24.7935,0,0.000885,0,0
0:1:52.960,198.062,25.221,0,0.000885,0,0
0:1:54.365,200.584,25.5382,0,0.000885,0,0
0:1:55.755,202.754,25.814,0,0.000885,0,0
0:1:57.149,205.864,26.2139,0,0.000885,0,0
0:1:58.562,208.737,26.5793,0,0.000885,0,0
0:1:59.966,211.202,26.8896,0,0.000885,0,0
0:2:1.367,213.782,27.2205,0,0.000885,0,0
0:2:2.765,217.006,27.6273,0,0.000885,0,0
0:2:4.144,219.707,27.972,0,0.000885,0,0
0:2:5.571,221.935,28.2547,0,0.000885,0,0
0:2:6.975,225.16,28.6684,0,0.000885,0,0
0:2:8.364,228.207,29.0545,0,0.000885,0,0
0:2:9.753,231.316,29.4544,0,0.000885,0,0
0:2:11.171,233.603,29.744,0,0.000885,0,0
0:2:12.566,236.419,30.1025,0,0.000885,0,0
0:2:13.955,238.825,30.4059,0,0.000885,0,0
0:2:15.374,241.583,30.7575,0,0.000885,0,0
0:2:16.776,243.811,31.0402,0,0.000885,0,0
0:2:18.167,246.627,31.3987,0,0.000885,0,0
0:2:19.567,250.204,31.8538,0,0.000885,0,0
0:2:20.965,252.374,32.1365,0,0.000885,0,0
0:2:22.368,255.364,32.5157,0,0.000885,0,0
0:2:23.767,257.828,32.8259,0,0.000885,0,0
0:2:25.157,260.586,33.1776,0,0.000885,0,0
0:2:26.559,264.278,33.6464,0,0.000885,0,0
0:2:27.968,266.333,33.9084,0,0.000885,0,0
0:2:29.366,268.383,34.1704,0,0.000885,0,0
0:2:30.773,271.435,34.5634,0,0.000885,0,0
0:2:32.179,274.776,34.984,0,0.000885,0,0
0:2:33.569,277.711,35.3563,0,0.000885,0,0
0:2:34.958,279.94,35.6459,0,0.000885,0,0
0:2:36.363,282.462,35.9631,0,0.000885,0,0
0:2:37.773,285.803,36.3905,0,0.000885,0,0
0:2:39.161,288.325,36.7077,0,0.000885,0,0
0:2:40.558,291.198,37.08,0,0.000885,0,0
0:2:41.960,293.841,37.411,0,0.000885,0,0
0:2:43.373,296.945,37.8108,0,0.000885,0,0
0:2:44.760,298.943,38.0591,0,0.000885,0,0
0:2:46.159,302.11,38.4659,0,0.000885,0,0
0:2:47.575,305.277,38.8657,0,0.000885,0,0
0:2:48.963,306.803,39.0657,0,0.000885,0,0
0:2:50.360,310.553,39.5414,0,0.000885,0,0
0:2:51.763,313.662,39.9344,0,0.000885,0,0
0:2:53.168,315.89,40.2171,0,0.000885,0,0
0:2:54.554,318.764,40.5894,0,0.000885,0,0
0:2:55.964,321.113,40.8859,0,0.000885,0,0
0:2:57.368,324.102,41.2651,0,0.000885,0,0
0:2:58.765,326.566,41.5823,0,0.000885,0,0
0:3:0.164,329.675,41.9753,0,0.000885,0,0
0:3:1.568,332.255,42.3062,0,0.000885,0,0
0:3:2.970,335.187,42.6785,0,0.000885,0,0
0:3:4.365,337.709,42.9957,0,0.000885,0,0
0:3:5.763,340.64,43.3749,0,0.000885,0,0
0:3:7.171,343.928,43.7886,0,0.000885,0,0
0:3:8.560,346.036,44.0575,0,0.000885,0,0
0:3:9.959,348.5,44.3747,0,0.000885,0,0
0:3:11.365,351.961,44.8159,0,0.000885,0,0
0:3:12.774,353.838,45.0503,0,0.000885,0,0
0:3:14.160,356.827,45.4296,0,0.000885,0,0
0:3:15.569,359.528,45.7743,0,0.000885,0,0
0:3:16.974,362.752,46.188,0,0.000885,0,0
0:3:18.376,364.923,46.4638,0,0.000885,0,0
0:3:19.777,368.442,46.9119,0,0.000885,0,0
0:3:21.175,370.435,47.167,0,0.000885,0,0
0:3:22.571,373.37,47.5394,0,0.000885,0,0
0:3:23.972,376.244,47.9048,0,0.000885,0,0
0:3:25.358,379.233,48.284,0,0.000885,0,0
0:3:26.761,381.755,48.608,0,0.000885,0,0
0:3:28.152,384.398,48.9459,0,0.000885,0,0
0:3:29.561,386.8,49.2493,0,0.000885,0,0
0:3:30.961,390.26,49.6905,0,0.000885,0,0
0:3:32.377,392.253,49.9456,0,0.000885,0,0
0:3:33.765,395.362,50.3386,0,0.000885,0,0
0:3:35.166,398.414,50.7247,0,0.000885,0,0
0:3:36.572,400.936,51.0488,0,0.000885,0,0
0:3:37.971,403.458,51.3728,0,0.000885,0,0
0:3:39.371,407.15,51.8417,0,0.000885,0,0
0:3:40.767,409.147,52.0968,0,0.000885,0,0
0:3:42.174,412.079,52.4691,0,0.000885,0,0
0:3:43.574,414.837,52.8207,0,0.000885,0,0
0:3:44.955,417.532,53.1586,0,0.000885,0,0
0:3:46.361,420.348,53.5171,0,0.000885,0,0
0:3:47.759,423.164,53.8756,0,0.000885,0,0
0:3:49.166,426.037,54.248,0,0.000885,0,0
0:3:50.564,428.444,54.5513,0,0.000885,0,0
0:3:51.971,431.491,54.9374,0,0.000885,0,0
0:3:53.374,433.955,55.2546,0,0.000885,0,0
0:3:54.774,436.006,55.5166,0,0.000885,0,0
0:3:56.170,439.467,55.9579,0,0.000885,0,0
0:3:57.578,442.518,56.344,0,0.000885,0,0
0:3:58.957,445.04,56.6611,0,0.000885,0,0
0:4:0.378,447.798,57.0127,0,0.000885,0,0
0:4:1.781,450.436,57.3506,0,0.000885,0,0
0:4:3.171,453.603,57.7574,0,0.000885,0,0
0:4:4.562,456.067,58.0676,0,0.000885,0,0
0:4:5.960,458.705,58.4055,0,0.000885,0,0
0:4:7.377,461.699,58.7847,0,0.000885,0,0
0:4:8.765,464.101,59.0881,0,0.000885,0,0
0:4:10.177,466.974,59.4604,0,0.000885,0,0
0:4:11.585,469.732,59.8051,0,0.000885,0,0
0:4:12.970,472.019,60.1016,0,0.000885,0,0
0:4:14.371,476.009,60.6049,0,0.000885,0,0
0:4:15.768,478.001,60.86,0,0.000885,0,0
0:4:17.171,480.288,61.1496,0,0.000885,0,0
0:4:18.562,483.281,61.5357,0,0.000885,0,0
0:4:19.983,486.386,61.9287,0,0.000885,0,0
0:4:21.389,488.677,62.2183,0,0.000885,0,0
0:4:22.777,491.551,62.5837,0,0.000885,0,0
0:4:24.179,494.598,62.9767,0,0.000885,0,0
0:4:25.565,497.298,63.3146,0,0.000885,0,0
0:4:26.964,500.171,63.6869,0,0.000885,0,0
0:4:28.369,503.045,64.0523,0,0.000885,0,0
0:4:29.751,505.389,64.3488,0,0.000885,0,0
0:4:31.150,508.441,64.7349,0,0.000885,0,0
0:4:32.539,510.554,65.0038,0,0.000885,0,0
0:4:33.926,513.778,65.4175,0,0.000885,0,0
0:4:35.310,516.185,65.7208,0,0.000885,0,0
0:4:36.715,519.232,66.1138,0,0.000885,0,0
0:4:38.098,521.581,66.4103,0,0.000885,0,0
0:4:39.484,524.218,66.7481,0,0.000885,0,0
0:4:40.885,527.501,67.1618,0,0.000885,0,0
0:4:42.279,530.317,67.5204,0,0.000885,0,0
0:4:43.672,532.488,67.7961,0,0.000885,0,0
0:4:45.066,535.539,68.1891,0,0.000885,0,0
0:4:46.472,538.528,68.5684,0,0.000885,0,0
0:4:47.871,540.877,68.8648,0,0.000885,0,0
0:4:49.274,543.688,69.2234,0,0.000885,0,0
0:4:50.666,546.976,69.6439,0,0.000885,0,0
0:4:52.083,549.262,69.9335,0,0.000885,0,0
0:4:53.475,552.078,70.2921,0,0.000885,0,0
0:4:54.869,554.658,70.623,0,0.000885,0,0
0:4:56.274,557.122,70.9333,0,0.000885,0,0
0:4:57.673,560.289,71.3401,0,0.000885,0,0
0:4:59.075,562.927,71.671,0,0.000885,0,0
0:5:0.470,565.565,72.0088,0,0.000885,0,0
0:5:1.873,568.91,72.4363,0,0.000885,0,0
0:5:3.286,570.845,72.6845,0,0.000885,0,0
0:5:4.677,569.964,72.5673,0,0.000885,0,0
0:5:6.088,576.943,73.4567,0,0.000885,0,0
0:5:7.473,580.875,73.9601,0,0.000885,0,0
0:5:8.875,583.749,74.3255,0,0.000885,0,0
0:5:10.268,585.862,74.5944,0,0.000885,0,0
0:5:11.674,553.016,70.4093,0,0.000885,0,0
0:5:13.082,533.72,67.9547,0,0.000885,0,0
0:5:14.483,528.911,67.3411,0,0.000885,0,0
0:5:15.879,509.437,64.8659,0,0.000885,0,0
0:5:17.283,503.868,64.1557,0,0.000885,0,0
0:5:18.682,504.219,64.1971,0,0.000885,0,0
0:5:20.085,484.803,61.7288,0,0.000885,0,0
0:5:21.487,472.784,60.1981,0,0.000885,0,0
0:5:22.883,470.435,59.8948,0,0.000885,0,0
0:5:24.274,469.617,59.7913,0,0.000885,0,0
0:5:25.683,461.636,58.7778,0,0.000885,0,0
0:5:27.084,460.698,58.6606,0,0.000885,0,0
0:5:28.483,458.763,58.4124,0,0.000885,0,0
0:5:29.884,457.944,58.309,0,0.000885,0,0
0:5:31.290,442.754,56.3715,0,0.000885,0,0
0:5:31.449,423.164,53.8756,0,0.000885,0,0

File: DataFile2021-06-07_040612.csv
Test ID:,Date Tested:,Time:,Test Type:,Diameter Avg. (mm):,Cyl. Corr. Factor:,Height (mm):,Age (days):,Weight (kN):,Break Type:,Ramp Rate (MPa/s):,Load at Break (kN):,Stress at Break (MPa):
12,6/7/2021,04:06,Cylinder,100,1,200,0,3.6,3,0.25,691.63,88.06
Sample Time,Load (kN),Stress (MPa),Long. Strain,Trans. Strain,Chan1 Deflection (mm),Chan2 Deflection (mm)
0:0:23.872,5.04428,0.641212,0,0.000885,0,0
0:0:25.361,8.97206,1.14453,0,0.000885,0,0
0:0:26.851,10.907,1.38585,0,0.000885,0,0
0:0:28.343,13.5493,1.72369,0,0.000885,0,0
0:0:29.843,16.365,2.08222,0,0.000885,0,0
0:0:31.348,19.6478,2.5028,0,0.000885,0,0
0:0:32.842,23.4021,2.97854,0,0.000885,0,0
0:0:34.342,25.8041,3.2888,0,0.000885,0,0
0:0:35.849,29.0914,3.70248,0,0.000885,0,0
0:0:37.341,31.3778,3.99206,0,0.000885,0,0
0:0:38.834,34.3091,4.37128,0,0.000885,0,0
0:0:40.349,37.4763,4.77117,0,0.000885,0,0
0:0:41.844,40.4699,5.15038,0,0.000885,0,0
0:0:43.337,43.2234,5.50202,0,0.000885,0,0
0:0:44.839,46.0391,5.86054,0,0.000885,0,0
0:0:46.344,49.3842,6.28802,0,0.000885,0,0
0:0:47.834,52.4356,6.67413,0,0.000885,0,0
0:0:49.324,54.5441,6.94302,0,0.000885,0,0
0:0:50.841,58.3562,7.43255,0,0.000885,0,0
0:0:52.332,61.0563,7.77039,0,0.000885,0,0
0:0:53.821,63.7519,8.11513,0,0.000885,0,0
0:0:55.336,67.1548,8.5495,0,0.000885,0,0
0:0:56.828,69.7348,8.88045,0,0.000885,0,0
0:0:58.321,73.022,9.29413,0,0.000885,0,0
0:0:59.826,75.602,9.62508,0,0.000885,0,0
0:1:1.333,78.9426,10.0526,0,0.000885,0,0
0:1:2.824,82.4033,10.4938,0,0.000885,0,0
0:1:4.311,84.5162,10.7627,0,0.000885,0,0
0:1:5.831,87.6833,11.1626,0,0.000885,0,0
0:1:7.322,90.6725,11.5418,0,0.000885,0,0
0:1:8.824,93.6662,11.9279,0,0.000885,0,0
0:1:10.340,96.0682,12.2313,0,0.000885,0,0
0:1:11.834,99.529,12.6726,0,0.000885,0,0
0:1:13.325,102.638,13.0656,0,0.000885,0,0
0:1:14.838,105.218,13.3965,0,0.000885,0,0
0:1:16.339,108.505,13.8171,0,0.000885,0,0
0:1:17.831,111.028,14.1343,0,0.000885,0,0
0:1:19.324,114.075,14.5273,0,0.000885,0,0
0:1:20.842,116.89,14.8858,0,0.000885,0,0
0:1:22.334,120.235,15.3064,0,0.000885,0,0
0:1:23.826,122.637,15.6166,0,0.000885,0,0
0:1:25.336,125.689,16.0027,0,0.000885,0,0
0:1:26.836,128.972,16.4233,0,0.000885,0,0
0:1:28.329,132.081,16.8163,0,0.000885,0,0
0:1:29.839,134.661,17.1473,0,0.000885,0,0
0:1:31.341,137.712,17.5334,0,0.000885,0,0
0:1:32.833,140.995,17.9539,0,0.000885,0,0
0:1:34.334,143.753,18.3056,0,0.000885,0,0
0:1:35.844,146.511,18.6572,0,0.000885,0,0
0:1:37.341,149.385,19.0226,0,0.000885,0,0
0:1:38.834,152.489,19.4156,0,0.000885,0,0
0:1:40.348,155.19,19.7604,0,0.000885,0,0
0:1:41.844,157.885,20.1051,0,0.000885,0,0
0:1:43.339,161.466,20.5602,0,0.000885,0,0
0:1:44.846,164.397,20.9325,0,0.000885,0,0
0:1:46.349,167.097,21.2772,0,0.000885,0,0
0:1:47.844,170.029,21.6495,0,0.000885,0,0
0:1:49.339,173.138,22.0425,0,0.000885,0,0
0:1:50.857,176.127,22.4286,0,0.000885,0,0
0:1:52.350,179.294,22.8285,0,0.000885,0,0
0:1:53.844,181.995,23.1733,0,0.000885,0,0
0:1:55.353,184.984,23.5525,0,0.000885,0,0
0:1:56.856,187.857,23.9179,0,0.000885,0,0
0:1:58.345,190.202,24.2144,0,0.000885,0,0
0:1:59.856,193.724,24.6625,0,0.000885,0,0
0:2:1.344,196.536,25.0211,0,0.000885,0,0
0:2:2.827,199.765,25.4348,0,0.000885,0,0
0:2:4.327,202.754,25.814,0,0.000885,0,0
0:2:5.829,205.512,26.1656,0,0.000885,0,0
0:2:7.323,208.208,26.5103,0,0.000885,0,0
0:2:8.804,211.553,26.9378,0,0.000885,0,0
0:2:10.326,214.017,27.2481,0,0.000885,0,0
0:2:11.825,217.416,27.6825,0,0.000885,0,0
0:2:13.304,220.352,28.0548,0,0.000885,0,0
0:2:14.796,222.754,28.365,0,0.000885,0,0
0:2:16.313,226.45,28.8339,0,0.000885,0,0
0:2:17.807,228.914,29.1441,0,0.000885,0,0
0:2:19.298,231.961,29.5371,0,0.000885,0,0
0:2:20.808,234.835,29.9026,0,0.000885,0,0
0:2:22.309,237.709,30.268,0,0.000885,0,0
0:2:23.793,240.818,30.661,0,0.000885,0,0
0:2:25.295,243.398,30.9919,0,0.000885,0,0
0:2:26.783,246.214,31.3505,0,0.000885,0,0
0:2:28.266,249.732,31.7986,0,0.000885,0,0
0:2:29.756,251.845,32.0675,0,0.000885,0,0
0:2:31.253,254.425,32.3916,0,0.000885,0,0
0:2:32.735,257.476,32.7846,0,0.000885,0,0
0:2:34.221,260.234,33.1362,0,0.000885,0,0
0:2:35.725,263.691,33.5775,0,0.000885,0,0
0:2:37.216,266.92,33.9843,0,0.000885,0,0
0:2:38.717,269.206,34.2738,0,0.000885,0,0
0:2:40.218,272.022,34.6324,0,0.000885,0,0
0:2:41.717,275.421,35.0667,0,0.000885,0,0
0:2:43.217,277.476,35.3287,0,0.000885,0,0
0:2:44.730,281.346,35.8252,0,0.000885,0,0
0:2:46.228,286.861,36.5215,0,0.000885,0,0
0:2:47.708,290.905,37.0386,0,0.000885,0,0
0:2:49.209,292.431,37.2317,0,0.000885,0,0
0:2:50.704,293.898,37.4178,0,0.000885,0,0
0:2:52.215,296.714,37.7764,0,0.000885,0,0
0:2:53.714,299.703,38.1625,0,0.000885,0,0
0:2:55.217,301.99,38.4521,0,0.000885,0,0
0:2:56.731,305.45,38.8933,0,0.000885,0,0
0:2:58.220,308.151,39.2381,0,0.000885,0,0
0:2:59.733,311.14,39.6173,0,0.000885,0,0
0:3:1.229,313.72,39.9413,0,0.000885,0,0
0:3:2.729,316.829,40.3412,0,0.000885,0,0
0:3:4.217,319.703,40.7066,0,0.000885,0,0
0:3:5.723,323.341,41.1686,0,0.000885,0,0
0:3:7.224,325.685,41.4651,0,0.000885,0,0
0:3:8.705,328.559,41.8305,0,0.000885,0,0
0:3:10.210,331.846,42.2511,0,0.000885,0,0
0:3:11.704,335.071,42.6648,0,0.000885,0,0
0:3:13.188,337.767,43.0026,0,0.000885,0,0
0:3:14.682,340.992,43.4163,0,0.000885,0,0
0:3:16.179,343.87,43.7817,0,0.000885,0,0
0:3:17.660,346.392,44.1058,0,0.000885,0,0
0:3:19.138,349.265,44.4712,0,0.000885,0,0
0:3:20.646,352.255,44.8504,0,0.000885,0,0
0:3:22.135,355.422,45.2503,0,0.000885,0,0
0:3:23.626,358.295,45.6226,0,0.000885,0,0
0:3:25.132,360.875,45.9467,0,0.000885,0,0
0:3:26.633,364.042,46.3535,0,0.000885,0,0
0:3:28.134,367.036,46.7327,0,0.000885,0,0
0:3:29.626,370.203,47.1326,0,0.000885,0,0
0:3:31.132,372.49,47.429,0,0.000885,0,0
0:3:32.633,375.83,47.8496,0,0.000885,0,0
0:3:34.131,378.882,48.2426,0,0.000885,0,0
0:3:35.638,381.755,48.608,0,0.000885,0,0
0:3:37.139,384.749,48.9873,0,0.000885,0,0
0:3:38.628,387.916,49.394,0,0.000885,0,0
0:3:40.136,390.79,49.7595,0,0.000885,0,0
0:3:41.637,393.249,50.0697,0,0.000885,0,0
0:3:43.138,396.595,50.4972,0,0.000885,0,0
0:3:44.637,399.352,50.8488,0,0.000885,0,0
0:3:46.140,402.168,51.2074,0,0.000885,0,0
0:3:47.633,405.687,51.6555,0,0.000885,0,0
0:3:49.133,408.325,51.9865,0,0.000885,0,0
0:3:50.641,411.376,52.3795,0,0.000885,0,0
0:3:52.140,414.307,52.7518,0,0.000885,0,0
0:3:53.634,416.772,53.0621,0,0.000885,0,0
0:3:55.139,419.819,53.4551,0,0.000885,0,0
0:3:56.641,422.928,53.8481,0,0.000885,0,0
0:3:58.141,426.095,54.2548,0,0.000885,0,0
0:3:59.639,428.853,54.6065,0,0.000885,0,0
0:4:1.139,431.669,54.965,0,0.000885,0,0
0:4:2.639,434.836,55.3649,0,0.000885,0,0
0:4:4.135,437.709,55.7303,0,0.000885,0,0
0:4:5.641,440.756,56.1164,0,0.000885,0,0
0:4:7.121,443.514,56.4681,0,0.000885,0,0
0:4:8.606,446.917,56.9024,0,0.000885,0,0
0:4:10.105,449.146,57.1851,0,0.000885,0,0
0:4:11.593,452.429,57.6057,0,0.000885,0,0
0:4:13.074,455.538,57.9987,0,0.000885,0,0
0:4:14.567,458.176,58.3365,0,0.000885,0,0
0:4:16.064,461.054,58.702,0,0.000885,0,0
0:4:17.543,464.159,59.1019,0,0.000885,0,0
0:4:19.043,467.032,59.4673,0,0.000885,0,0
0:4:20.543,469.732,59.8051,0,0.000885,0,0
0:4:22.036,473.135,60.2395,0,0.000885,0,0
0:4:23.524,475.773,60.5773,0,0.000885,0,0
0:4:25.026,478.646,60.9428,0,0.000885,0,0
0:4:26.545,481.929,61.3633,0,0.000885,0,0
0:4:28.044,484.571,61.6943,0,0.000885,0,0
0:4:29.547,487.151,62.0252,0,0.000885,0,0
0:4:31.044,490.67,62.4734,0,0.000885,0,0
0:4:32.545,493.428,62.825,0,0.000885,0,0
0:4:34.037,496.537,63.218,0,0.000885,0,0
0:4:35.540,499.642,63.6179,0,0.000885,0,0
0:4:37.040,502.516,63.9833,0,0.000885,0,0
0:4:38.541,505.1,64.3143,0,0.000885,0,0
0:4:40.048,508.325,64.7211,0,0.000885,0,0
0:4:41.540,510.433,64.99,0,0.000885,0,0
0:4:43.039,514.366,65.4933,0,0.000885,0,0
0:4:44.548,517.297,65.8656,0,0.000885,0,0
0:4:46.038,519.704,66.169,0,0.000885,0,0
0:4:47.539,522.635,66.5413,0,0.000885,0,0
0:4:49.042,525.918,66.9619,0,0.000885,0,0
0:4:50.548,528.911,67.3411,0,0.000885,0,0
0:4:52.036,531.549,67.6789,0,0.000885,0,0
0:4:53.539,534.543,68.0581,0,0.000885,0,0
0:4:55.046,537.941,68.4925,0,0.000885,0,0
0:4:56.544,540.228,68.7821,0,0.000885,0,0
0:4:58.043,543.279,69.1751,0,0.000885,0,0
0:4:59.550,546.273,69.5543,0,0.000885,0,0
0:5:1.047,549.378,69.9473,0,0.000885,0,0
0:5:2.549,552.193,70.3058,0,0.000885,0,0
0:5:4.032,555.303,70.7057,0,0.000885,0,0
0:5:5.535,557.647,71.0022,0,0.000885,0,0
0:5:7.046,561.17,71.4504,0,0.000885,0,0
0:5:8.547,564.51,71.8778,0,0.000885,0,0
0:5:10.055,567.504,72.2571,0,0.000885,0,0
0:5:11.543,570.142,72.5949,0,0.000885,0,0
0:5:13.041,572.606,72.9052,0,0.000885,0,0
0:5:14.551,575.831,73.3188,0,0.000885,0,0
0:5:16.051,579.172,73.7394,0,0.000885,0,0
0:5:17.544,581.694,74.0635,0,0.000885,0,0
0:5:19.050,584.981,74.4841,0,0.000885,0,0
0:5:20.555,587.561,74.8081,0,0.000885,0,0
0:5:22.051,590.613,75.2011,0,0.000885,0,0
0:5:23.550,593.842,75.6079,0,0.000885,0,0
0:5:25.059,596.951,76.0078,0,0.000885,0,0
0:5:26.556,599.416,76.3181,0,0.000885,0,0
0:5:28.052,602.174,76.6697,0,0.000885,0,0
0:5:29.548,605.229,77.0627,0,0.000885,0,0
0:5:31.051,608.161,77.435,0,0.000885,0,0
0:5:32.538,611.39,77.8418,0,0.000885,0,0
0:5:34.048,614.148,78.1934,0,0.000885,0,0
0:5:35.554,617.204,78.5864,0,0.000885,0,0
0:5:37.044,619.842,78.9243,0,0.000885,0,0
0:5:38.544,622.956,79.3173,0,0.000885,0,0
0:5:40.062,625.891,79.6896,0,0.000885,0,0
0:5:41.559,628.943,80.0826,0,0.000885,0,0
0:5:43.054,631.937,80.4618,0,0.000885,0,0
0:5:44.561,635.166,80.8686,0,0.000885,0,0
0:5:46.065,637.746,81.1996,0,0.000885,0,0
0:5:47.553,640.86,81.5995,0,0.000885,0,0
0:5:49.051,643.911,81.9856,0,0.000885,0,0
0:5:50.555,646.611,82.3303,0,0.000885,0,0
0:5:52.052,649.899,82.7509,0,0.000885,0,0
0:5:53.551,652.247,83.0474,0,0.000885,0,0
0:5:55.061,655.414,83.4472,0,0.000885,0,0
0:5:56.556,658.702,83.8678,0,0.000885,0,0
0:5:58.056,661.873,84.2746,0,0.000885,0,0
0:5:59.561,664.337,84.5849,0,0.000885,0,0
0:6:1.064,667.389,84.9779,0,0.000885,0,0
0:6:2.555,670.089,85.3157,0,0.000885,0,0
0:6:4.050,673.025,85.6949,0,0.000885,0,0
0:6:5.563,675.903,86.0604,0,0.000885,0,0
0:6:7.049,679.012,86.4534,0,0.000885,0,0
0:6:8.549,682.006,86.8326,0,0.000885,0,0
0:6:10.061,684.942,87.2118,0,0.000885,0,0
0:6:11.550,687.935,87.591,0,0.000885,0,0
0:6:13.048,690.457,87.9151,0,0.000885,0,0
0:6:13.990,569.67,72.5328,0,0.000885,0,0