Folder: Experiment-Files (part 93)

File: DataFile2021-07-28_094613.csv
Test ID:,Date Tested:,Time:,Test Type:,Diameter Avg. (mm):,Cyl. Corr. Factor:,Height (mm):,Age (days):,Weight (kN):,Break Type:,Ramp Rate (MPa/s):,Load at Break (kN):,Stress at Break (MPa):
12,7/28/2021,09:46,Cylinder,150,1,300,0,13.69,3,0.33,1324.47,74.95
Sample Time,Load (kN),Stress (MPa),Long. Strain,Trans. Strain,Chan1 Deflection (mm),Chan2 Deflection (mm)
0:0:8.305,7.15719,0.406791,0,0.000885,0,0
0:0:9.299,11.3207,0.641212,0,0.000885,0,0
0:0:10.294,17.0678,0.965266,0,0.000885,0,0
0:0:11.288,22.8149,1.28932,0,0.000885,0,0
0:0:12.283,29.4428,1.66853,0,0.000885,0,0
0:0:13.280,36.8313,2.08222,0,0.000885,0,0
0:0:14.283,43.7527,2.47522,0,0.000885,0,0
0:0:15.295,50.3227,2.84753,0,0.000885,0,0
0:0:16.293,54.8955,3.10954,0,0.000885,0,0
0:0:17.288,60.527,3.42669,0,0.000885,0,0
0:0:18.283,68.1512,3.85417,0,0.000885,0,0
0:0:19.288,73.8405,4.17822,0,0.000885,0,0
0:0:20.298,80.8197,4.57122,0,0.000885,0,0
0:0:21.295,85.9218,4.8608,0,0.000885,0,0
0:0:22.291,91.8469,5.19865,0,0.000885,0,0
0:0:23.285,98.5326,5.57786,0,0.000885,0,0
0:0:24.296,104.573,5.9157,0,0.000885,0,0
0:0:25.301,111.259,6.29491,0,0.000885,0,0
0:0:26.297,116.833,6.61207,0,0.000885,0,0
0:0:27.291,122.758,6.94992,0,0.000885,0,0
0:0:28.288,129.852,7.34981,0,0.000885,0,0
0:0:29.300,135.133,7.64629,0,0.000885,0,0
0:0:30.302,142.112,8.03929,0,0.000885,0,0
0:0:31.300,148.446,8.39781,0,0.000885,0,0
0:0:32.296,154.367,8.73566,0,0.000885,0,0
0:0:33.291,160.527,9.08729,0,0.000885,0,0
0:0:34.301,166.217,9.40445,0,0.000885,0,0
0:0:35.307,172.845,9.78366,0,0.000885,0,0
0:0:36.303,179.117,10.1353,0,0.000885,0,0
0:0:37.299,185.219,10.48,0,0.000885,0,0
0:0:38.294,191.669,10.8455,0,0.000885,0,0
0:0:39.290,197.359,11.1695,0,0.000885,0,0
0:0:40.293,203.284,11.5005,0,0.000885,0,0
0:0:41.283,210.027,11.8866,0,0.000885,0,0
0:0:42.271,215.717,12.2037,0,0.000885,0,0
0:0:43.259,221.406,12.5278,0,0.000885,0,0
0:0:44.254,228.385,12.9208,0,0.000885,0,0
0:0:45.257,234.368,13.2655,0,0.000885,0,0
0:0:46.258,241.169,13.6447,0,0.000885,0,0
0:0:47.254,246.859,13.9688,0,0.000885,0,0
0:0:48.262,252.668,14.2997,0,0.000885,0,0
0:0:49.268,259.176,14.6651,0,0.000885,0,0
0:0:50.261,264.691,14.9754,0,0.000885,0,0
0:0:51.259,271.608,15.3684,0,0.000885,0,0
0:0:52.255,278.005,15.7338,0,0.000885,0,0
0:0:53.254,283.868,16.0648,0,0.000885,0,0
0:0:54.261,290.202,16.4233,0,0.000885,0,0
0:0:55.258,296.007,16.7474,0,0.000885,0,0
0:0:56.255,302.11,17.099,0,0.000885,0,0
0:0:57.264,308.386,17.4506,0,0.000885,0,0
0:0:58.262,314.071,17.7747,0,0.000885,0,0
0:0:59.268,321.228,18.1746,0,0.000885,0,0
0:1:0.264,326.918,18.4986,0,0.000885,0,0
0:1:1.262,332.607,18.8227,0,0.000885,0,0
0:1:2.261,339.644,19.2226,0,0.000885,0,0
0:1:3.260,345.218,19.5328,0,0.000885,0,0
0:1:4.269,352.139,19.9258,0,0.000885,0,0
0:1:5.270,358.473,20.2844,0,0.000885,0,0
0:1:6.257,363.811,20.5877,0,0.000885,0,0
0:1:7.264,370.435,20.9601,0,0.000885,0,0
0:1:8.260,376.595,21.3117,0,0.000885,0,0
0:1:9.259,382.93,21.6702,0,0.000885,0,0
0:1:10.260,388.735,22.0012,0,0.000885,0,0
0:1:11.258,394.717,22.339,0,0.000885,0,0
0:1:12.264,401.581,22.7251,0,0.000885,0,0
0:1:13.262,407.564,23.063,0,0.000885,0,0
0:1:14.268,414.014,23.4284,0,0.000885,0,0
0:1:15.264,419.525,23.7386,0,0.000885,0,0
0:1:16.261,425.277,24.0627,0,0.000885,0,0
0:1:17.262,432.55,24.4764,0,0.000885,0,0
0:1:18.260,438.177,24.7935,0,0.000885,0,0
0:1:19.271,444.924,25.1797,0,0.000885,0,0
0:1:20.273,450.551,25.4968,0,0.000885,0,0
0:1:21.262,456.654,25.8416,0,0.000885,0,0
0:1:22.259,463.34,26.2208,0,0.000885,0,0
0:1:23.253,469.203,26.5517,0,0.000885,0,0
0:1:24.250,474.367,26.8413,0,0.000885,0,0
0:1:25.252,481.578,27.255,0,0.000885,0,0
0:1:26.263,487.445,27.5859,0,0.000885,0,0
0:1:27.260,494.776,27.9996,0,0.000885,0,0
0:1:28.265,499.584,28.2685,0,0.000885,0,0
0:1:29.271,506.621,28.6684,0,0.000885,0,0
0:1:30.266,512.311,28.9925,0,0.000885,0,0
0:1:31.263,518.707,29.351,0,0.000885,0,0
0:1:32.261,525.041,29.7095,0,0.000885,0,0
0:1:33.259,531.14,30.0542,0,0.000885,0,0
0:1:34.262,536.709,30.3714,0,0.000885,0,0
0:1:35.261,543.866,30.7782,0,0.000885,0,0
0:1:36.259,549.907,31.116,0,0.000885,0,0
0:1:37.259,556.063,31.4677,0,0.000885,0,0
0:1:38.266,561.521,31.7779,0,0.000885,0,0
0:1:39.266,567.62,32.1227,0,0.000885,0,0
0:1:40.267,574.305,32.5019,0,0.000885,0,0
0:1:41.252,580.23,32.8328,0,0.000885,0,0
0:1:42.250,587.383,33.2396,0,0.000885,0,0
0:1:43.263,593.428,33.5844,0,0.000885,0,0
0:1:44.277,599.651,33.936,0,0.000885,0,0
0:1:45.283,605.523,34.2669,0,0.000885,0,0
0:1:46.276,610.51,34.5496,0,0.000885,0,0
0:1:47.269,618.316,34.9909,0,0.000885,0,0
0:1:48.260,624.13,35.3218,0,0.000885,0,0
0:1:49.270,629.997,35.6528,0,0.000885,0,0
0:1:50.272,636.572,36.0251,0,0.000885,0,0
0:1:51.265,642.679,36.3698,0,0.000885,0,0
0:1:52.268,649.311,36.7422,0,0.000885,0,0
0:1:53.262,654.302,37.0248,0,0.000885,0,0
0:1:54.267,660.757,37.3903,0,0.000885,0,0
0:1:55.272,667.158,37.7557,0,0.000885,0,0
0:1:56.265,673.67,38.1211,0,0.000885,0,0
0:1:57.268,680.831,38.5279,0,0.000885,0,0
0:1:58.270,685.765,38.8037,0,0.000885,0,0
0:1:59.271,691.165,39.114,0,0.000885,0,0
0:2:0.277,697.855,39.4932,0,0.000885,0,0
0:2:1.270,704.429,39.8655,0,0.000885,0,0
0:2:2.263,710.83,40.224,0,0.000885,0,0
0:2:3.264,716.991,40.5756,0,0.000885,0,0
0:2:4.273,722.391,40.879,0,0.000885,0,0
0:2:5.273,728.792,41.2444,0,0.000885,0,0
0:2:6.263,735.189,41.603,0,0.000885,0,0
0:2:7.255,740.998,41.9339,0,0.000885,0,0
0:2:8.259,747.693,42.3131,0,0.000885,0,0
0:2:9.267,753.093,42.6165,0,0.000885,0,0
0:2:10.270,760.077,43.0095,0,0.000885,0,0
0:2:11.263,765.828,43.3404,0,0.000885,0,0
0:2:12.267,771.17,43.6369,0,0.000885,0,0
0:2:13.257,778.216,44.0368,0,0.000885,0,0
0:2:14.274,784.729,44.4091,0,0.000885,0,0
0:2:15.279,791.13,44.7677,0,0.000885,0,0
0:2:16.271,796.765,45.0848,0,0.000885,0,0
0:2:17.265,802.166,45.3951,0,0.000885,0,0
0:2:18.265,809.501,45.8088,0,0.000885,0,0
0:2:19.278,815.315,46.1397,0,0.000885,0,0
0:2:20.286,822.005,46.5189,0,0.000885,0,0
0:2:21.278,828.108,46.8637,0,0.000885,0,0
0:2:22.270,833.979,47.1946,0,0.000885,0,0
0:2:23.260,840.26,47.5462,0,0.000885,0,0
0:2:24.273,846.363,47.891,0,0.000885,0,0
0:2:25.273,853.761,48.3116,0,0.000885,0,0
0:2:26.266,858.751,48.5942,0,0.000885,0,0
0:2:27.258,864.387,48.9114,0,0.000885,0,0
0:2:28.264,871.313,49.3044,0,0.000885,0,0
0:2:29.278,877.123,49.6354,0,0.000885,0,0
0:2:30.284,884.4,50.049,0,0.000885,0,0
0:2:31.278,889.569,50.3386,0,0.000885,0,0
0:2:32.271,895.729,50.6903,0,0.000885,0,0
0:2:33.264,902.068,51.0488,0,0.000885,0,0
0:2:34.277,908.585,51.4142,0,0.000885,0,0
0:2:35.283,914.279,51.7383,0,0.000885,0,0
0:2:36.276,920.795,52.1037,0,0.000885,0,0
0:2:37.269,926.667,52.4415,0,0.000885,0,0
0:2:38.260,933.651,52.8345,0,0.000885,0,0
0:2:39.272,939.286,53.1517,0,0.000885,0,0
0:2:40.280,945.567,53.5102,0,0.000885,0,0
0:2:41.274,951.848,53.8618,0,0.000885,0,0
0:2:42.265,957.658,54.1928,0,0.000885,0,0
0:2:43.268,964.116,54.5582,0,0.000885,0,0
0:2:44.269,970.277,54.9098,0,0.000885,0,0
0:2:45.275,976.91,55.2822,0,0.000885,0,0
0:2:46.270,982.488,55.5993,0,0.000885,0,0
0:2:47.260,987.946,55.9096,0,0.000885,0,0
0:2:48.274,995.285,56.3233,0,0.000885,0,0
0:2:49.284,1000.98,56.6404,0,0.000885,0,0
0:2:50.282,1006.97,56.9852,0,0.000885,0,0
0:2:51.275,1013.48,57.3506,0,0.000885,0,0
0:2:52.267,1019.18,57.6746,0,0.000885,0,0
0:2:53.260,1025.69,58.0401,0,0.000885,0,0
0:2:54.271,1031.32,58.3641,0,0.000885,0,0
0:2:55.273,1037.73,58.7226,0,0.000885,0,0
0:2:56.264,1044.18,59.0881,0,0.000885,0,0
0:2:57.270,1049.99,59.419,0,0.000885,0,0
0:2:58.262,1057.04,59.8189,0,0.000885,0,0
0:2:59.271,1062.73,60.1361,0,0.000885,0,0
0:3:0.275,1068.25,60.4532,0,0.000885,0,0
0:3:1.270,1075.06,60.8324,0,0.000885,0,0
0:3:2.272,1080.98,61.1703,0,0.000885,0,0
0:3:3.262,1086.44,61.4806,0,0.000885,0,0
0:3:4.269,1093.6,61.8873,0,0.000885,0,0
0:3:5.275,1099.94,62.2459,0,0.000885,0,0
0:3:6.276,1106.05,62.5906,0,0.000885,0,0
0:3:7.270,1111.92,62.9216,0,0.000885,0,0
0:3:8.260,1117.32,63.2249,0,0.000885,0,0
0:3:9.274,1124.42,63.6317,0,0.000885,0,0
0:3:10.281,1130.24,63.9558,0,0.000885,0,0
0:3:11.272,1136.57,64.3143,0,0.000885,0,0
0:3:12.264,1142.85,64.6728,0,0.000885,0,0
0:3:13.266,1148.43,64.99,0,0.000885,0,0
0:3:14.278,1154.65,65.3416,0,0.000885,0,0
0:3:15.277,1160.52,65.6726,0,0.000885,0,0
0:3:16.269,1167.45,66.0656,0,0.000885,0,0
0:3:17.260,1173.55,66.4103,0,0.000885,0,0
0:3:18.262,1179.6,66.755,0,0.000885,0,0
0:3:19.273,1185.65,67.0929,0,0.000885,0,0
0:3:20.273,1191.34,67.4169,0,0.000885,0,0
0:3:21.264,1198.38,67.8168,0,0.000885,0,0
0:3:22.270,1204.31,68.1478,0,0.000885,0,0
0:3:23.261,1209.65,68.4512,0,0.000885,0,0
0:3:24.271,1214.82,68.7476,0,0.000885,0,0
0:3:25.273,1219.92,69.0303,0,0.000885,0,0
0:3:26.264,1224.68,69.3061,0,0.000885,0,0
0:3:27.259,1228.96,69.5474,0,0.000885,0,0
0:3:28.271,1232.84,69.7612,0,0.000885,0,0
0:3:29.288,1237.59,70.0369,0,0.000885,0,0
0:3:30.292,1241.23,70.2369,0,0.000885,0,0
0:3:31.285,1244.87,70.4437,0,0.000885,0,0
0:3:32.279,1248.1,70.6299,0,0.000885,0,0
0:3:33.274,1252.04,70.8505,0,0.000885,0,0
0:3:34.277,1256.67,71.1125,0,0.000885,0,0
0:3:35.281,1260.25,71.3125,0,0.000885,0,0
0:3:36.275,1263.13,71.4779,0,0.000885,0,0
0:3:37.265,1265.89,71.6365,0,0.000885,0,0
0:3:38.278,1267.77,71.7399,0,0.000885,0,0
0:3:39.279,1271.58,71.9537,0,0.000885,0,0
0:3:40.285,1273.17,72.0433,0,0.000885,0,0
0:3:41.277,1277.22,72.2777,0,0.000885,0,0
0:3:42.268,1280.91,72.4846,0,0.000885,0,0
0:3:43.259,1284.61,72.6914,0,0.000885,0,0
0:3:44.272,1288.49,72.9121,0,0.000885,0,0
0:3:45.269,1291.95,73.112,0,0.000885,0,0
0:3:46.262,1294.59,73.2568,0,0.000885,0,0
0:3:47.277,1298.52,73.4843,0,0.000885,0,0
0:3:48.269,1301.58,73.6567,0,0.000885,0,0
0:3:49.276,1304.63,73.8291,0,0.000885,0,0
0:3:50.279,1307.92,74.0152,0,0.000885,0,0
0:3:51.269,1311.03,74.1876,0,0.000885,0,0
0:3:52.274,1314.84,74.4082,0,0.000885,0,0
0:3:53.275,1317.66,74.5668,0,0.000885,0,0
0:3:54.286,1320.3,74.7116,0,0.000885,0,0
0:3:55.294,1322.71,74.8495,0,0.000885,0,0
0:3:56.284,1324.88,74.9736,0,0.000885,0,0
0:3:57.275,1172.03,66.3207,0,0.000885,0,0
0:3:57.628,971.572,54.9788,0,0.000885,0,0

File: DataFile2021-07-28_095210.csv
Test ID:,Date Tested:,Time:,Test Type:,Diameter Avg. (mm):,Cyl. Corr. Factor:,Height (mm):,Age (days):,Weight (kN):,Break Type:,Ramp Rate (MPa/s):,Load at Break (kN):,Stress at Break (MPa):
12,7/28/2021,09:52,Cylinder,150,1,300,0,13.69,3,0.34,827.05,46.8
Sample Time,Load (kN),Stress (MPa),Long. Strain,Trans. Strain,Chan1 Deflection (mm),Chan2 Deflection (mm)
0:0:7.894,7.5086,0.427475,0,0.000885,0,0
0:0:8.490,13.0778,0.737739,0,0.000885,0,0
0:0:9.101,13.2557,0.751529,0,0.000885,0,0
0:0:9.719,13.8429,0.786002,0,0.000885,0,0
0:0:10.316,18.4735,1.048,0,0.000885,0,0
0:0:10.915,22.637,1.28242,0,0.000885,0,0
0:0:11.511,25.9821,1.46858,0,0.000885,0,0
0:0:12.117,30.0299,1.69611,0,0.000885,0,0
0:0:12.714,35.0742,1.98569,0,0.000885,0,0
0:0:13.318,38.7084,2.19253,0,0.000885,0,0
0:0:13.925,43.8105,2.48211,0,0.000885,0,0
0:0:14.529,47.8006,2.70274,0,0.000885,0,0
0:0:15.130,52.3155,2.95785,0,0.000885,0,0
0:0:15.727,54.7798,3.10264,0,0.000885,0,0
0:0:16.321,57.5956,3.26122,0,0.000885,0,0
0:0:16.918,61.1141,3.46117,0,0.000885,0,0
0:0:17.516,64.3969,3.64733,0,0.000885,0,0
0:0:18.114,69.2677,3.91622,0,0.000885,0,0
0:0:18.723,73.0798,4.13685,0,0.000885,0,0
0:0:19.329,76.5984,4.3368,0,0.000885,0,0
0:0:19.929,79.8233,4.51607,0,0.000885,0,0
0:0:20.526,83.5776,4.7298,0,0.000885,0,0
0:0:21.126,87.6833,4.96423,0,0.000885,0,0
0:0:21.724,91.024,5.15038,0,0.000885,0,0
0:0:22.322,95.3076,5.3917,0,0.000885,0,0
0:0:22.917,98.4747,5.57096,0,0.000885,0,0
0:0:23.520,102.816,5.81918,0,0.000885,0,0
0:0:24.127,105.748,5.98465,0,0.000885,0,0
0:0:24.734,110.32,6.23976,0,0.000885,0,0
0:0:25.332,114.484,6.48107,0,0.000885,0,0
0:0:25.926,117.184,6.63276,0,0.000885,0,0
0:0:26.523,120.525,6.81891,0,0.000885,0,0
0:0:27.120,124.221,7.03265,0,0.000885,0,0
0:0:27.718,128.563,7.27397,0,0.000885,0,0
0:0:28.316,131.61,7.44634,0,0.000885,0,0
0:0:28.924,136.187,7.70834,0,0.000885,0,0
0:0:29.529,139.59,7.90139,0,0.000885,0,0
0:0:30.130,143.05,8.09445,0,0.000885,0,0
0:0:30.729,147.094,8.32197,0,0.000885,0,0
0:0:31.329,150.497,8.51503,0,0.000885,0,0
0:0:31.928,154.66,8.74945,0,0.000885,0,0
0:0:32.522,157.712,8.92182,0,0.000885,0,0
0:0:33.118,162.169,9.17692,0,0.000885,0,0
0:0:33.725,165.22,9.34929,0,0.000885,0,0
0:0:34.332,169.793,9.61129,0,0.000885,0,0
0:0:34.935,172.782,9.77677,0,0.000885,0,0
0:0:35.532,176.714,9.9974,0,0.000885,0,0
0:0:36.128,180.82,10.2318,0,0.000885,0,0
0:0:36.725,184.103,10.418,0,0.000885,0,0
0:0:37.326,188.035,10.6386,0,0.000885,0,0
0:0:37.924,191.847,10.8592,0,0.000885,0,0
0:0:38.518,194.485,11.004,0,0.000885,0,0
0:0:39.122,198.707,11.2453,0,0.000885,0,0
0:0:39.724,201.874,11.4246,0,0.000885,0,0
0:0:40.319,205.922,11.6521,0,0.000885,0,0
0:0:40.913,209.44,11.8521,0,0.000885,0,0
0:0:41.507,213.43,12.0796,0,0.000885,0,0
0:0:42.107,216.771,12.2658,0,0.000885,0,0
0:0:42.700,220.525,12.4795,0,0.000885,0,0
0:0:43.300,224.809,12.7208,0,0.000885,0,0
0:0:43.902,228.443,12.9277,0,0.000885,0,0
0:0:44.503,232.433,13.1552,0,0.000885,0,0
0:0:45.098,235.894,13.3483,0,0.000885,0,0
0:0:45.692,239.999,13.5827,0,0.000885,0,0
0:0:46.292,243.224,13.7619,0,0.000885,0,0
0:0:46.884,246.449,13.9481,0,0.000885,0,0
0:0:47.480,250.613,14.1825,0,0.000885,0,0
0:0:48.072,254.016,14.3756,0,0.000885,0,0
0:0:48.679,258.064,14.6031,0,0.000885,0,0
0:0:49.281,261.462,14.7961,0,0.000885,0,0
0:0:49.875,264.629,14.9754,0,0.000885,0,0
0:0:50.468,269.028,15.2236,0,0.000885,0,0
0:0:51.063,273.076,15.4512,0,0.000885,0,0
0:0:51.659,276.421,15.6442,0,0.000885,0,0
0:0:52.254,279.589,15.8235,0,0.000885,0,0
0:0:52.846,283.632,16.051,0,0.000885,0,0
0:0:53.444,287.271,16.2578,0,0.000885,0,0
0:0:54.048,290.673,16.4509,0,0.000885,0,0
0:0:54.649,294.659,16.6715,0,0.000885,0,0
0:0:55.246,298.12,16.8715,0,0.000885,0,0
0:0:55.840,302.226,17.1059,0,0.000885,0,0
0:0:56.432,305.686,17.2989,0,0.000885,0,0
0:0:57.022,309.147,17.492,0,0.000885,0,0
0:0:57.615,313.31,17.7264,0,0.000885,0,0
0:0:58.219,316.887,17.9333,0,0.000885,0,0
0:0:58.824,320.819,18.1539,0,0.000885,0,0
0:0:59.426,324.28,18.3538,0,0.000885,0,0
0:1:0.025,327.505,18.5331,0,0.000885,0,0
0:1:0.616,332.198,18.7951,0,0.000885,0,0
0:1:1.218,335.538,18.9882,0,0.000885,0,0
0:1:1.812,339.47,19.2088,0,0.000885,0,0
0:1:2.405,342.695,19.395,0,0.000885,0,0
0:1:3.001,346.392,19.6018,0,0.000885,0,0
0:1:3.605,350.084,19.8086,0,0.000885,0,0
0:1:4.207,353.838,20.0224,0,0.000885,0,0
0:1:4.803,357.708,20.243,0,0.000885,0,0
0:1:5.397,361.169,20.4361,0,0.000885,0,0
0:1:6.001,365.039,20.6567,0,0.000885,0,0
0:1:6.594,368.326,20.8429,0,0.000885,0,0
0:1:7.216,373.019,21.1117,0,0.000885,0,0
0:1:7.808,376.244,21.291,0,0.000885,0,0
0:1:8.413,379.878,21.4979,0,0.000885,0,0
0:1:9.018,383.69,21.7116,0,0.000885,0,0
0:1:9.618,387.151,21.9115,0,0.000885,0,0
0:1:10.219,390.963,22.1253,0,0.000885,0,0
0:1:10.808,394.13,22.3045,0,0.000885,0,0
0:1:11.404,398.765,22.5665,0,0.000885,0,0
0:1:12.009,401.754,22.732,0,0.000885,0,0
0:1:12.612,405.393,22.9389,0,0.000885,0,0
0:1:13.219,409.85,23.194,0,0.000885,0,0
0:1:13.822,413.075,23.3732,0,0.000885,0,0
0:1:14.424,417.123,23.6076,0,0.000885,0,0
0:1:15.020,420.29,23.7869,0,0.000885,0,0
0:1:15.624,424.69,24.0351,0,0.000885,0,0
0:1:16.217,427.621,24.2006,0,0.000885,0,0
0:1:16.805,430.788,24.3799,0,0.000885,0,0
0:1:17.408,435.361,24.635,0,0.000885,0,0
0:1:18.011,438.884,24.8349,0,0.000885,0,0
0:1:18.617,442.518,25.0418,0,0.000885,0,0
0:1:19.221,446.272,25.2555,0,0.000885,0,0
0:1:19.819,450.494,25.4899,0,0.000885,0,0
0:1:20.421,454.248,25.7037,0,0.000885,0,0
0:1:21.023,458.002,25.9174,0,0.000885,0,0
0:1:21.618,461.872,26.138,0,0.000885,0,0
0:1:22.220,464.746,26.2966,0,0.000885,0,0
0:1:22.813,469.087,26.5448,0,0.000885,0,0
0:1:23.419,472.139,26.7172,0,0.000885,0,0
0:1:24.023,476.418,26.9585,0,0.000885,0,0
0:1:24.623,479.763,27.1516,0,0.000885,0,0
0:1:25.219,483.984,27.386,0,0.000885,0,0
0:1:25.821,487.094,27.5652,0,0.000885,0,0
0:1:26.425,491.551,27.8135,0,0.000885,0,0
0:1:27.018,494.776,27.9996,0,0.000885,0,0
0:1:27.615,498.53,28.2133,0,0.000885,0,0
0:1:28.219,502.4,28.4271,0,0.000885,0,0
0:1:28.823,505.509,28.6063,0,0.000885,0,0
0:1:29.427,509.788,28.8477,0,0.000885,0,0
0:1:30.028,512.604,29.0062,0,0.000885,0,0
0:1:30.618,517.413,29.282,0,0.000885,0,0
0:1:31.219,520.936,29.482,0,0.000885,0,0
0:1:31.820,524.392,29.675,0,0.000885,0,0
0:1:32.413,528.791,29.9232,0,0.000885,0,0
0:1:33.018,531.958,30.1025,0,0.000885,0,0
0:1:33.623,536.064,30.3369,0,0.000885,0,0
0:1:34.224,539,30.5024,0,0.000885,0,0
0:1:34.819,543.337,30.7437,0,0.000885,0,0
0:1:35.411,546.504,30.923,0,0.000885,0,0
0:1:36.004,549.556,31.0954,0,0.000885,0,0
0:1:36.610,553.955,31.3505,0,0.000885,0,0
0:1:37.203,557.589,31.5504,0,0.000885,0,0
0:1:37.796,562.34,31.8193,0,0.000885,0,0
0:1:38.402,564.982,31.971,0,0.000885,0,0
0:1:39.007,569.497,32.2261,0,0.000885,0,0
0:1:39.609,572.958,32.426,0,0.000885,0,0
0:1:40.203,575.947,32.5915,0,0.000885,0,0
0:1:40.819,580.288,32.8397,0,0.000885,0,0
0:1:41.408,583.922,33.0466,0,0.000885,0,0
0:1:42.000,587.152,33.2258,0,0.000885,0,0
0:1:42.603,590.613,33.4189,0,0.000885,0,0
0:1:43.210,594.838,33.6602,0,0.000885,0,0
0:1:43.816,598.597,33.8739,0,0.000885,0,0
0:1:44.422,602.939,34.1222,0,0.000885,0,0
0:1:45.024,606.226,34.3083,0,0.000885,0,0
0:1:45.615,610.158,34.5289,0,0.000885,0,0
0:1:46.222,613.739,34.7289,0,0.000885,0,0
0:1:46.816,616.733,34.9013,0,0.000885,0,0
0:1:47.414,620.843,35.1357,0,0.000885,0,0
0:1:48.010,624.775,35.3563,0,0.000885,0,0
0:1:48.620,628.943,35.5907,0,0.000885,0,0
0:1:49.221,631.937,35.7631,0,0.000885,0,0
0:1:49.819,635.108,35.9424,0,0.000885,0,0
0:1:50.415,639.04,36.163,0,0.000885,0,0
0:1:51.011,642.853,36.3767,0,0.000885,0,0
0:1:51.608,646.905,36.6043,0,0.000885,0,0
0:1:52.203,650.601,36.818,0,0.000885,0,0
0:1:52.796,653.657,36.9904,0,0.000885,0,0
0:1:53.398,658.114,37.2386,0,0.000885,0,0
0:1:54.005,661.05,37.411,0,0.000885,0,0
0:1:54.610,665.512,37.6592,0,0.000885,0,0
0:1:55.228,668.919,37.8522,0,0.000885,0,0
0:1:55.823,672.789,38.0728,0,0.000885,0,0
0:1:56.414,676.49,38.2797,0,0.000885,0,0
0:1:57.021,680.6,38.5141,0,0.000885,0,0
0:1:57.615,683.825,38.6934,0,0.000885,0,0
0:1:58.215,688.229,38.9485,0,0.000885,0,0
0:1:58.822,691.28,39.1209,0,0.000885,0,0
0:1:59.428,694.688,39.3139,0,0.000885,0,0
0:2:0.028,698.562,39.5276,0,0.000885,0,0
0:2:0.623,702.494,39.7552,0,0.000885,0,0
0:2:1.229,706.484,39.9758,0,0.000885,0,0
0:2:1.825,709.772,40.162,0,0.000885,0,0
0:2:2.422,713.704,40.3895,0,0.000885,0,0
0:2:3.015,717.049,40.5756,0,0.000885,0,0
0:2:3.613,720.456,40.7687,0,0.000885,0,0
0:2:4.222,724.504,40.9962,0,0.000885,0,0
0:2:4.823,728.027,41.1962,0,0.000885,0,0
0:2:5.422,731.666,41.403,0,0.000885,0,0
0:2:6.015,735.424,41.6168,0,0.000885,0,0
0:2:6.621,739.357,41.8374,0,0.000885,0,0
0:2:7.226,742.995,42.0442,0,0.000885,0,0
0:2:7.818,747.221,42.2855,0,0.000885,0,0
0:2:8.426,750.744,42.4855,0,0.000885,0,0
0:2:9.032,753.618,42.6441,0,0.000885,0,0
0:2:9.637,758.142,42.8992,0,0.000885,0,0
0:2:10.230,761.429,43.0853,0,0.000885,0,0
0:2:10.825,765.361,43.3129,0,0.000885,0,0
0:2:11.418,768.706,43.499,0,0.000885,0,0
0:2:12.015,773.11,43.7472,0,0.000885,0,0
0:2:12.610,776.513,43.9403,0,0.000885,0,0
0:2:13.217,779.328,44.0989,0,0.000885,0,0
0:2:13.827,783.496,44.3402,0,0.000885,0,0
0:2:14.431,786.846,44.5263,0,0.000885,0,0
0:2:15.029,791.187,44.7746,0,0.000885,0,0
0:2:15.626,794.417,44.9538,0,0.000885,0,0
0:2:16.232,798.407,45.1813,0,0.000885,0,0
0:2:16.828,801.4,45.3468,0,0.000885,0,0
0:2:17.423,805.511,45.5812,0,0.000885,0,0
0:2:18.016,808.914,45.7743,0,0.000885,0,0
0:2:18.619,812.143,45.9605,0,0.000885,0,0
0:2:19.227,816.195,46.188,0,0.000885,0,0
0:2:19.832,819.54,46.3741,0,0.000885,0,0
0:2:20.430,823.588,46.6086,0,0.000885,0,0
0:2:21.023,825.937,46.7396,0,0.000885,0,0
0:2:21.615,825.643,46.7189,0,0.000885,0,0
0:2:22.210,819.95,46.4017,0,0.000885,0,0
0:2:22.803,804.746,45.5399,0,0.000885,0,0
0:2:23.408,759.961,43.0026,0,0.000885,0,0
0:2:23.633,667.331,37.7626,0,0.000885,0,0