Folder: Experiment-Files (part 81)

File: DataFile2021-07-17_051409.csv
Test ID:,Date Tested:,Time:,Test Type:,Diameter Avg. (mm):,Cyl. Corr. Factor:,Height (mm):,Age (days):,Weight (kN):,Break Type:,Ramp Rate (MPa/s):,Load at Break (kN):,Stress at Break (MPa):
12,7/17/2021,05:14,Cylinder,100,1,200,0,3.6,3,0.25,1335.68,170.07
Sample Time,Load (kN),Stress (MPa),Long. Strain,Trans. Strain,Chan1 Deflection (mm),Chan2 Deflection (mm)
0:0:7.493,5.10211,0.648107,0,0.000885,0,0
0:0:10.402,10.4978,1.33758,0,0.000885,0,0
0:0:13.311,16.0714,2.04774,0,0.000885,0,0
0:0:16.222,22.8149,2.90269,0,0.000885,0,0
0:0:19.129,28.562,3.63354,0,0.000885,0,0
0:0:22.016,33.722,4.29543,0,0.000885,0,0
0:0:24.930,39.1799,4.9918,0,0.000885,0,0
0:0:27.815,45.2206,5.75712,0,0.000885,0,0
0:0:30.723,50.4962,6.43281,0,0.000885,0,0
0:0:33.627,56.4212,7.18434,0,0.000885,0,0
0:0:36.529,62.2884,7.92897,0,0.000885,0,0
0:0:39.437,67.2705,8.56329,0,0.000885,0,0
0:0:42.327,73.2533,9.32861,0,0.000885,0,0
0:0:45.240,78.8269,10.0388,0,0.000885,0,0
0:0:48.130,84.5162,10.7627,0,0.000885,0,0
0:0:51.039,90.9661,11.5832,0,0.000885,0,0
0:0:53.946,96.0682,12.2313,0,0.000885,0,0
0:0:56.841,102.229,13.0173,0,0.000885,0,0
0:0:59.757,107.331,13.6654,0,0.000885,0,0
0:1:2.643,113.723,14.479,0,0.000885,0,0
0:1:5.555,119.297,15.1892,0,0.000885,0,0
0:1:8.453,124.866,15.8993,0,0.000885,0,0
0:1:11.352,130.497,16.6164,0,0.000885,0,0
0:1:14.261,136.245,17.3472,0,0.000885,0,0
0:1:17.155,141.992,18.0781,0,0.000885,0,0
0:1:20.065,148.152,18.8641,0,0.000885,0,0
0:1:22.954,153.37,19.526,0,0.000885,0,0
0:1:25.864,159.002,20.243,0,0.000885,0,0
0:1:28.768,164.864,20.9945,0,0.000885,0,0
0:1:31.661,170.265,21.6771,0,0.000885,0,0
0:1:34.575,176.421,22.4631,0,0.000885,0,0
0:1:37.458,182.11,23.1871,0,0.000885,0,0
0:1:40.371,187.097,23.8214,0,0.000885,0,0
0:1:43.265,192.724,24.5384,0,0.000885,0,0
0:1:46.144,198.764,25.3107,0,0.000885,0,0
0:1:49.030,205.041,26.1036,0,0.000885,0,0
0:1:51.917,209.498,26.6758,0,0.000885,0,0
0:1:54.806,215.601,27.448,0,0.000885,0,0
0:1:57.713,221.521,28.2065,0,0.000885,0,0
0:2:0.618,227.269,28.9373,0,0.000885,0,0
0:2:3.518,232.375,29.5854,0,0.000885,0,0
0:2:6.402,239.003,30.4335,0,0.000885,0,0
0:2:9.307,244.163,31.0885,0,0.000885,0,0
0:2:12.219,249.794,31.8055,0,0.000885,0,0
0:2:15.116,255.715,32.557,0,0.000885,0,0
0:2:18.013,261.168,33.2534,0,0.000885,0,0
0:2:20.906,267.151,34.0118,0,0.000885,0,0
0:2:23.786,272.138,34.6531,0,0.000885,0,0
0:2:26.661,278.299,35.4322,0,0.000885,0,0
0:2:29.546,284.219,36.1906,0,0.000885,0,0
0:2:32.418,289.499,36.8594,0,0.000885,0,0
0:2:35.308,295.011,37.5626,0,0.000885,0,0
0:2:38.179,301.229,38.3555,0,0.000885,0,0
0:2:41.061,306.158,38.983,0,0.000885,0,0
0:2:43.947,312.665,39.8103,0,0.000885,0,0
0:2:46.822,317.594,40.4378,0,0.000885,0,0
0:2:49.723,323.048,41.1341,0,0.000885,0,0
0:2:52.625,329.498,41.9546,0,0.000885,0,0
0:2:55.521,335.245,42.6854,0,0.000885,0,0
0:2:58.430,340.409,43.3404,0,0.000885,0,0
0:3:1.323,347.037,44.1885,0,0.000885,0,0
0:3:4.212,351.61,44.7677,0,0.000885,0,0
0:3:7.107,357.299,45.4916,0,0.000885,0,0
0:3:9.994,363.927,46.3397,0,0.000885,0,0
0:3:12.865,368.793,46.9533,0,0.000885,0,0
0:3:15.750,374.718,47.7117,0,0.000885,0,0
0:3:18.627,380.523,48.4495,0,0.000885,0,0
0:3:21.516,385.803,49.1251,0,0.000885,0,0
0:3:24.403,392.547,49.9801,0,0.000885,0,0
0:3:27.302,397.182,50.573,0,0.000885,0,0
0:3:30.220,403.632,51.3935,0,0.000885,0,0
0:3:33.130,408.854,52.0554,0,0.000885,0,0
0:3:36.026,414.774,52.8138,0,0.000885,0,0
0:3:38.930,419.819,53.4551,0,0.000885,0,0
0:3:41.826,425.041,54.1169,0,0.000885,0,0
0:3:44.723,431.962,54.9995,0,0.000885,0,0
0:3:47.626,437.416,55.6958,0,0.000885,0,0
0:3:50.530,442.696,56.3646,0,0.000885,0,0
0:3:53.428,448.265,57.0748,0,0.000885,0,0
0:3:56.325,454.07,57.8125,0,0.000885,0,0
0:3:59.229,460.115,58.5848,0,0.000885,0,0
0:4:2.119,465.684,59.2949,0,0.000885,0,0
0:4:5.031,471.552,60.0395,0,0.000885,0,0
0:4:7.929,477.414,60.7842,0,0.000885,0,0
0:4:10.828,483.397,61.5495,0,0.000885,0,0
0:4:13.731,488.326,62.1769,0,0.000885,0,0
0:4:16.626,494.424,62.9491,0,0.000885,0,0
0:4:19.533,499.233,63.5628,0,0.000885,0,0
0:4:22.430,506.212,64.4522,0,0.000885,0,0
0:4:25.332,511.141,65.0796,0,0.000885,0,0
0:4:28.239,516.474,65.7622,0,0.000885,0,0
0:4:31.132,522.751,66.562,0,0.000885,0,0
0:4:34.033,527.737,67.1963,0,0.000885,0,0
0:4:36.931,534.071,68.003,0,0.000885,0,0
0:4:39.824,539.645,68.7063,0,0.000885,0,0
0:4:42.732,545.801,69.4923,0,0.000885,0,0
0:4:45.637,551.255,70.1886,0,0.000885,0,0
0:4:48.539,557.358,70.9677,0,0.000885,0,0
0:4:51.434,562.927,71.671,0,0.000885,0,0
0:4:54.343,568.558,72.3881,0,0.000885,0,0
0:4:57.230,574.128,73.0982,0,0.000885,0,0
0:5:0.139,578.998,73.7187,0,0.000885,0,0
0:5:3.031,585.506,74.5461,0,0.000885,0,0
0:5:5.936,591.729,75.339,0,0.000885,0,0
0:5:8.845,596.658,75.9664,0,0.000885,0,0
0:5:11.735,602.707,76.7386,0,0.000885,0,0
0:5:14.642,608.339,77.4557,0,0.000885,0,0
0:5:17.544,614.033,78.1797,0,0.000885,0,0
0:5:20.441,619.081,78.8209,0,0.000885,0,0
0:5:23.341,625.189,79.6,0,0.000885,0,0
0:5:26.241,631.118,80.3584,0,0.000885,0,0
0:5:29.150,636.87,81.0892,0,0.000885,0,0
0:5:32.035,642.15,81.758,0,0.000885,0,0
0:5:34.948,649.018,82.6337,0,0.000885,0,0
0:5:37.845,653.422,83.199,0,0.000885,0,0
0:5:40.734,659.057,83.9161,0,0.000885,0,0
0:5:43.644,665.512,84.7366,0,0.000885,0,0
0:5:46.537,671.148,85.4536,0,0.000885,0,0
0:5:49.446,676.081,86.081,0,0.000885,0,0
0:5:52.343,682.419,86.8877,0,0.000885,0,0
0:5:55.245,687.642,87.5565,0,0.000885,0,0
0:5:58.149,693.865,88.3425,0,0.000885,0,0
0:6:1.042,699.207,89.0251,0,0.000885,0,0
0:6:3.953,704.901,89.7491,0,0.000885,0,0
0:6:6.838,710.71,90.4937,0,0.000885,0,0
0:6:9.752,716.404,91.2176,0,0.000885,0,0
0:6:12.638,721.688,91.8864,0,0.000885,0,0
0:6:15.539,727.324,92.6035,0,0.000885,0,0
0:6:18.454,733.663,93.4102,0,0.000885,0,0
0:6:21.347,738.654,94.0514,0,0.000885,0,0
0:6:24.252,744.993,94.8581,0,0.000885,0,0
0:6:27.130,750.099,95.5062,0,0.000885,0,0
0:6:30.042,755.851,96.237,0,0.000885,0,0
0:6:32.948,762.31,97.0575,0,0.000885,0,0
0:6:35.843,767.358,97.7056,0,0.000885,0,0
0:6:38.759,773.283,98.4571,0,0.000885,0,0
0:6:41.640,779.333,99.2293,0,0.000885,0,0
0:6:44.547,784.613,99.8981,0,0.000885,0,0
0:6:47.444,790.133,100.601,0,0.000885,0,0
0:6:50.346,796.294,101.387,0,0.000885,0,0
0:6:53.249,802.281,102.153,0,0.000885,0,0
0:6:56.148,807.33,102.794,0,0.000885,0,0
0:6:59.056,812.788,103.49,0,0.000885,0,0
0:7:1.937,818.775,104.249,0,0.000885,0,0
0:7:4.851,824.647,105,0,0.000885,0,0
0:7:7.754,830.456,105.738,0,0.000885,0,0
0:7:10.653,835.919,106.434,0,0.000885,0,0
0:7:13.557,841.67,107.165,0,0.000885,0,0
0:7:16.441,847.306,107.882,0,0.000885,0,0
0:7:19.356,853.236,108.634,0,0.000885,0,0
0:7:22.240,858.694,109.33,0,0.000885,0,0
0:7:25.147,864.623,110.089,0,0.000885,0,0
0:7:28.053,869.903,110.757,0,0.000885,0,0
0:7:30.954,875.539,111.474,0,0.000885,0,0
0:7:33.853,881.762,112.267,0,0.000885,0,0
0:7:36.745,886.691,112.895,0,0.000885,0,0
0:7:39.656,892.914,113.688,0,0.000885,0,0
0:7:42.547,898.665,114.418,0,0.000885,0,0
0:7:45.449,904.653,115.184,0,0.000885,0,0
0:7:48.361,909.586,115.811,0,0.000885,0,0
0:7:51.251,915.337,116.542,0,0.000885,0,0
0:7:54.158,921.325,117.307,0,0.000885,0,0
0:7:57.049,926.96,118.024,0,0.000885,0,0
0:7:59.952,932.828,118.769,0,0.000885,0,0
0:8:2.853,938.464,119.486,0,0.000885,0,0
0:8:5.750,944.157,120.217,0,0.000885,0,0
0:8:8.666,950.265,120.989,0,0.000885,0,0
0:8:11.551,955.607,121.672,0,0.000885,0,0
0:8:14.463,961.474,122.416,0,0.000885,0,0
0:8:17.351,967.226,123.154,0,0.000885,0,0
0:8:20.253,973.275,123.919,0,0.000885,0,0
0:8:23.154,978.204,124.547,0,0.000885,0,0
0:8:26.052,983.782,125.257,0,0.000885,0,0
0:8:28.960,989.769,126.022,0,0.000885,0,0
0:8:31.846,995.285,126.726,0,0.000885,0,0
0:8:34.764,1000.51,127.388,0,0.000885,0,0
0:8:37.648,1006.44,128.146,0,0.000885,0,0
0:8:40.553,1012.31,128.891,0,0.000885,0,0
0:8:43.459,1018.12,129.628,0,0.000885,0,0
0:8:46.346,1023.64,130.332,0,0.000885,0,0
0:8:49.250,1029.51,131.083,0,0.000885,0,0
0:8:52.146,1034.97,131.773,0,0.000885,0,0
0:8:55.055,1040.72,132.51,0,0.000885,0,0
0:8:57.955,1046.36,133.227,0,0.000885,0,0
0:9:0.850,1052.05,133.951,0,0.000885,0,0
0:9:3.759,1057.68,134.668,0,0.000885,0,0
0:9:6.648,1063.97,135.468,0,0.000885,0,0
0:9:9.562,1069.07,136.116,0,0.000885,0,0
0:9:12.445,1075.41,136.923,0,0.000885,0,0
0:9:15.348,1080.93,137.626,0,0.000885,0,0
0:9:18.260,1086.45,138.33,0,0.000885,0,0
0:9:21.154,1091.9,139.026,0,0.000885,0,0
0:9:24.063,1097.42,139.729,0,0.000885,0,0
0:9:26.962,1103.82,140.543,0,0.000885,0,0
0:9:29.864,1108.75,141.17,0,0.000885,0,0
0:9:32.755,1115.15,141.984,0,0.000885,0,0
0:9:35.650,1120.96,142.728,0,0.000885,0,0
0:9:38.562,1126.65,143.452,0,0.000885,0,0
0:9:41.459,1132.23,144.162,0,0.000885,0,0
0:9:44.372,1138.57,144.969,0,0.000885,0,0
0:9:47.254,1143.26,145.562,0,0.000885,0,0
0:9:50.165,1149.14,146.314,0,0.000885,0,0
0:9:53.063,1155.53,147.127,0,0.000885,0,0
0:9:55.958,1160.41,147.748,0,0.000885,0,0
0:9:58.866,1165.81,148.437,0,0.000885,0,0
0:10:1.766,1172.32,149.265,0,0.000885,0,0
0:10:4.676,1177.49,149.92,0,0.000885,0,0
0:10:7.556,1183.65,150.706,0,0.000885,0,0
0:10:10.457,1188.99,151.388,0,0.000885,0,0
0:10:13.359,1195.33,152.195,0,0.000885,0,0
0:10:16.268,1200.5,152.85,0,0.000885,0,0
0:10:19.175,1206.13,153.567,0,0.000885,0,0
0:10:22.051,1211.94,154.312,0,0.000885,0,0
0:10:24.960,1217.17,154.973,0,0.000885,0,0
0:10:27.855,1222.63,155.67,0,0.000885,0,0
0:10:30.756,1228.62,156.435,0,0.000885,0,0
0:10:33.671,1234.48,157.18,0,0.000885,0,0
0:10:36.551,1239.83,157.862,0,0.000885,0,0
0:10:39.455,1245.87,158.628,0,0.000885,0,0
0:10:42.351,1251.51,159.345,0,0.000885,0,0
0:10:45.262,1257.44,160.103,0,0.000885,0,0
0:10:48.178,1262.78,160.779,0,0.000885,0,0
0:10:51.068,1268.53,161.517,0,0.000885,0,0
0:10:53.978,1274.52,162.275,0,0.000885,0,0
0:10:56.855,1279.27,162.882,0,0.000885,0,0
0:10:59.761,1286.02,163.744,0,0.000885,0,0
0:11:2.669,1291.07,164.385,0,0.000885,0,0
0:11:5.568,1297.29,165.178,0,0.000885,0,0
0:11:8.481,1303.1,165.915,0,0.000885,0,0
0:11:11.366,1308.86,166.646,0,0.000885,0,0
0:11:14.277,1314.2,167.329,0,0.000885,0,0
0:11:17.175,1320.25,168.101,0,0.000885,0,0
0:11:20.073,1325.59,168.777,0,0.000885,0,0
0:11:22.954,1330.81,169.446,0,0.000885,0,0
0:11:25.804,1327.41,169.011,0,0.000885,0,0

File: DataFile2021-07-17_053058.csv
Test ID:,Date Tested:,Time:,Test Type:,Diameter Avg. (mm):,Cyl. Corr. Factor:,Height (mm):,Age (days):,Weight (kN):,Break Type:,Ramp Rate (MPa/s):,Load at Break (kN):,Stress at Break (MPa):
12,7/17/2021,05:30,Cylinder,100,1,200,0,3.6,3,0.25,1500.05,190.99
Sample Time,Load (kN),Stress (MPa),Long. Strain,Trans. Strain,Chan1 Deflection (mm),Chan2 Deflection (mm)
0:0:16.282,5.21776,0.661897,0,0.000885,0,0
0:0:19.465,10.0307,1.27553,0,0.000885,0,0
0:0:22.678,17.2413,2.19253,0,0.000885,0,0
0:0:25.878,23.9893,3.05438,0,0.000885,0,0
0:0:29.094,30.6171,3.89554,0,0.000885,0,0
0:0:32.293,36.5377,4.65396,0,0.000885,0,0
0:0:35.495,42.6985,5.43307,0,0.000885,0,0
0:0:38.705,48.9126,6.22597,0,0.000885,0,0
0:0:41.902,55.4248,7.06023,0,0.000885,0,0
0:0:45.106,61.6435,7.84623,0,0.000885,0,0
0:0:48.314,68.1512,8.6805,0,0.000885,0,0
0:0:51.501,74.0184,9.42513,0,0.000885,0,0
0:0:54.715,80.7619,10.2801,0,0.000885,0,0
0:0:57.924,87.0384,11.0799,0,0.000885,0,0
0:1:1.112,92.9011,11.8314,0,0.000885,0,0
0:1:4.327,99.2932,12.645,0,0.000885,0,0
0:1:7.526,105.512,13.431,0,0.000885,0,0
0:1:10.724,112.433,14.3135,0,0.000885,0,0
0:1:13.931,117.945,15.0168,0,0.000885,0,0
0:1:17.128,124.279,15.8235,0,0.000885,0,0
0:1:20.330,130.965,16.6784,0,0.000885,0,0
0:1:23.540,136.89,17.4299,0,0.000885,0,0
0:1:26.729,143.517,18.2711,0,0.000885,0,0
0:1:29.930,149.558,19.0433,0,0.000885,0,0
0:1:33.143,156.012,19.8638,0,0.000885,0,0
0:1:36.328,162.578,20.6981,0,0.000885,0,0
0:1:39.534,168.677,21.4772,0,0.000885,0,0
0:1:42.738,175.073,22.2908,0,0.000885,0,0
0:1:45.930,181.056,23.0492,0,0.000885,0,0
0:1:49.138,186.977,23.8076,0,0.000885,0,0
0:1:52.336,193.662,24.6557,0,0.000885,0,0
0:1:55.505,200.117,25.4761,0,0.000885,0,0
0:1:58.694,206.157,26.2483,0,0.000885,0,0
0:2:1.876,211.789,26.9654,0,0.000885,0,0
0:2:5.075,218.296,27.7928,0,0.000885,0,0
0:2:8.268,224.866,28.6339,0,0.000885,0,0
0:2:11.490,231.437,29.4682,0,0.000885,0,0
0:2:14.673,237.415,30.2266,0,0.000885,0,0
0:2:17.852,243.811,31.0402,0,0.000885,0,0
0:2:21.015,249.501,31.7641,0,0.000885,0,0
0:2:24.204,256.889,32.7087,0,0.000885,0,0
0:2:27.389,262.93,33.474,0,0.000885,0,0
0:2:30.575,269.206,34.2738,0,0.000885,0,0
0:2:33.757,274.776,34.984,0,0.000885,0,0
0:2:36.922,281.466,35.8389,0,0.000885,0,0
0:2:40.101,287.738,36.6387,0,0.000885,0,0
0:2:43.282,293.898,37.4178,0,0.000885,0,0
0:2:46.495,299.823,38.1763,0,0.000885,0,0
0:2:49.691,306.038,38.9692,0,0.000885,0,0
0:2:52.893,312.665,39.8103,0,0.000885,0,0
0:2:56.081,318.706,40.5756,0,0.000885,0,0
0:2:59.296,325.161,41.403,0,0.000885,0,0
0:3:2.494,331.726,42.2373,0,0.000885,0,0
0:3:5.679,337.473,42.9681,0,0.000885,0,0
0:3:8.862,344.221,43.83,0,0.000885,0,0
0:3:12.042,350.729,44.6573,0,0.000885,0,0
0:3:15.209,355.951,45.3192,0,0.000885,0,0
0:3:18.401,362.752,46.188,0,0.000885,0,0
0:3:21.599,368.62,46.9326,0,0.000885,0,0
0:3:24.785,375.127,47.76,0,0.000885,0,0
0:3:27.970,381.404,48.5598,0,0.000885,0,0
0:3:31.129,387.68,49.3596,0,0.000885,0,0
0:3:34.315,393.663,50.1249,0,0.000885,0,0
0:3:37.503,400.522,50.9936,0,0.000885,0,0
0:3:40.666,406.212,51.7176,0,0.000885,0,0
0:3:43.850,413.427,52.6415,0,0.000885,0,0
0:3:47.026,419.116,53.3654,0,0.000885,0,0
0:3:50.203,424.983,54.1101,0,0.000885,0,0
0:3:53.399,431.784,54.9788,0,0.000885,0,0
0:3:56.609,438.003,55.7648,0,0.000885,0,0
0:3:59.778,443.808,56.5094,0,0.000885,0,0
0:4:2.990,450.2,57.323,0,0.000885,0,0
0:4:6.152,455.889,58.047,0,0.000885,0,0
0:4:9.341,462.753,58.9226,0,0.000885,0,0
0:4:12.527,468.616,59.6672,0,0.000885,0,0
0:4:15.691,475.364,60.5222,0,0.000885,0,0
0:4:18.906,481.347,61.2875,0,0.000885,0,0
0:4:22.092,487.681,62.0942,0,0.000885,0,0
0:4:25.280,494.424,62.9491,0,0.000885,0,0
0:4:28.464,500.171,63.6869,0,0.000885,0,0
0:4:31.638,507.093,64.5625,0,0.000885,0,0
0:4:34.813,512.311,65.2313,0,0.000885,0,0
0:4:38.007,519.352,66.1276,0,0.000885,0,0
0:4:41.195,525.393,66.8929,0,0.000885,0,0
0:4:44.381,531.198,67.6376,0,0.000885,0,0
0:4:47.570,538.706,68.589,0,0.000885,0,0
0:4:50.730,543.751,69.2303,0,0.000885,0,0
0:4:53.913,550.668,70.1128,0,0.000885,0,0
0:4:57.115,556.419,70.8436,0,0.000885,0,0
0:5:0.305,563.105,71.6986,0,0.000885,0,0
0:5:3.505,568.968,72.4432,0,0.000885,0,0
0:5:6.716,575.36,73.2568,0,0.000885,0,0
0:5:9.906,581.227,74.0014,0,0.000885,0,0
0:5:13.089,587.797,74.8426,0,0.000885,0,0
0:5:16.294,594.193,75.6562,0,0.000885,0,0
0:5:19.507,600.941,76.5111,0,0.000885,0,0
0:5:22.714,606.697,77.2489,0,0.000885,0,0
0:5:25.893,612.743,78.0142,0,0.000885,0,0
0:5:29.116,619.553,78.8829,0,0.000885,0,0
0:5:32.330,625.42,79.6344,0,0.000885,0,0
0:5:35.515,632.052,80.4756,0,0.000885,0,0
0:5:38.711,638.689,81.3168,0,0.000885,0,0
0:5:41.922,644.676,82.0821,0,0.000885,0,0
0:5:45.116,650.837,82.8681,0,0.000885,0,0
0:5:48.316,656.767,83.6196,0,0.000885,0,0
0:5:51.517,663.225,84.447,0,0.000885,0,0
0:5:54.713,669.386,85.2261,0,0.000885,0,0
0:5:57.914,675.787,86.0466,0,0.000885,0,0
0:6:1.120,681.832,86.8119,0,0.000885,0,0
0:6:4.316,688.344,87.6462,0,0.000885,0,0
0:6:7.530,695.155,88.508,0,0.000885,0,0
0:6:10.720,700.848,89.2319,0,0.000885,0,0
0:6:13.918,707.187,90.0455,0,0.000885,0,0
0:6:17.130,713.53,90.8522,0,0.000885,0,0
0:6:20.314,719.985,91.6727,0,0.000885,0,0
0:6:23.526,726.679,92.5207,0,0.000885,0,0
0:6:26.725,732.311,93.2378,0,0.000885,0,0
0:6:29.917,739.005,94.0928,0,0.000885,0,0
0:6:33.129,744.815,94.8305,0,0.000885,0,0
0:6:36.323,751.683,95.7061,0,0.000885,0,0
0:6:39.522,757.786,96.4852,0,0.000885,0,0
0:6:42.733,764.009,97.2781,0,0.000885,0,0
0:6:45.919,769.823,98.0159,0,0.000885,0,0
0:6:49.123,776.513,98.8708,0,0.000885,0,0
0:6:52.332,782.322,99.6086,0,0.000885,0,0
0:6:55.518,789.074,100.47,0,0.000885,0,0
0:6:58.722,794.946,101.215,0,0.000885,0,0
0:7:1.935,801.458,102.042,0,0.000885,0,0
0:7:5.123,808.211,102.904,0,0.000885,0,0
0:7:8.324,813.847,103.621,0,0.000885,0,0
0:7:11.534,820.007,104.407,0,0.000885,0,0
0:7:14.724,826.702,105.255,0,0.000885,0,0
0:7:17.935,832.627,106.014,0,0.000885,0,0
0:7:21.132,839.673,106.91,0,0.000885,0,0
0:7:24.324,845.954,107.71,0,0.000885,0,0
0:7:27.532,851.826,108.455,0,0.000885,0,0
0:7:30.724,857.751,109.213,0,0.000885,0,0
0:7:33.929,864.503,110.075,0,0.000885,0,0
0:7:37.122,870.375,110.819,0,0.000885,0,0
0:7:40.325,876.829,111.64,0,0.000885,0,0
0:7:43.524,883.346,112.474,0,0.000885,0,0
0:7:46.736,889.506,113.253,0,0.000885,0,0
0:7:49.931,895.729,114.046,0,0.000885,0,0
0:7:53.132,902.01,114.846,0,0.000885,0,0
0:7:56.332,907.998,115.611,0,0.000885,0,0
0:7:59.524,914.399,116.425,0,0.000885,0,0
0:8:2.738,920.911,117.252,0,0.000885,0,0
0:8:5.932,927.428,118.087,0,0.000885,0,0
0:8:9.132,933.593,118.866,0,0.000885,0,0
0:8:12.341,939.989,119.686,0,0.000885,0,0
0:8:15.529,946.155,120.465,0,0.000885,0,0
0:8:18.730,952.378,121.258,0,0.000885,0,0
0:8:21.944,958.187,122.003,0,0.000885,0,0
0:8:25.134,965.406,122.92,0,0.000885,0,0
0:8:28.335,971.042,123.637,0,0.000885,0,0
0:8:31.542,977.675,124.485,0,0.000885,0,0
0:8:34.731,983.956,125.278,0,0.000885,0,0
0:8:37.938,990.414,126.105,0,0.000885,0,0
0:8:41.144,995.872,126.801,0,0.000885,0,0
0:8:44.336,1002.91,127.698,0,0.000885,0,0
0:8:47.542,1008.73,128.436,0,0.000885,0,0
0:8:50.734,1015.24,129.263,0,0.000885,0,0
0:8:53.935,1021.93,130.118,0,0.000885,0,0
0:8:57.146,1027.92,130.876,0,0.000885,0,0
0:9:0.338,1034.02,131.655,0,0.000885,0,0
0:9:3.534,1039.9,132.407,0,0.000885,0,0
0:9:6.743,1046.82,133.283,0,0.000885,0,0
0:9:9.936,1052.87,134.055,0,0.000885,0,0
0:9:13.137,1059.33,134.875,0,0.000885,0,0
0:9:16.343,1065.66,135.682,0,0.000885,0,0
0:9:19.538,1071.71,136.454,0,0.000885,0,0
0:9:22.745,1078.4,137.309,0,0.000885,0,0
0:9:25.934,1084.27,138.054,0,0.000885,0,0
0:9:29.134,1090.9,138.902,0,0.000885,0,0
0:9:32.326,1097.07,139.681,0,0.000885,0,0
0:9:35.538,1102.71,140.398,0,0.000885,0,0
0:9:38.740,1109.34,141.246,0,0.000885,0,0
0:9:41.946,1115.44,142.025,0,0.000885,0,0
0:9:45.136,1122.14,142.873,0,0.000885,0,0
0:9:48.339,1128.12,143.638,0,0.000885,0,0
0:9:51.548,1134.63,144.466,0,0.000885,0,0
0:9:54.739,1140.51,145.21,0,0.000885,0,0
0:9:57.951,1146.55,145.983,0,0.000885,0,0
0:10:1.137,1153.71,146.893,0,0.000885,0,0
0:10:4.344,1159.53,147.637,0,0.000885,0,0
0:10:7.540,1165.75,148.43,0,0.000885,0,0
0:10:10.722,1172.38,149.271,0,0.000885,0,0
0:10:13.934,1178.66,150.071,0,0.000885,0,0
0:10:17.148,1184.77,150.85,0,0.000885,0,0
0:10:20.338,1191.1,151.657,0,0.000885,0,0
0:10:23.535,1197.5,152.471,0,0.000885,0,0
0:10:26.741,1203.61,153.25,0,0.000885,0,0
0:10:29.933,1209.89,154.05,0,0.000885,0,0
0:10:33.144,1216.17,154.849,0,0.000885,0,0
0:10:36.330,1222.45,155.649,0,0.000885,0,0
0:10:39.545,1228.97,156.477,0,0.000885,0,0
0:10:42.747,1235.25,157.276,0,0.000885,0,0
0:10:45.937,1241.41,158.062,0,0.000885,0,0
0:10:49.145,1248.22,158.931,0,0.000885,0,0
0:10:52.363,1253.86,159.648,0,0.000885,0,0
0:10:55.539,1260.25,160.462,0,0.000885,0,0
0:10:58.750,1266.65,161.275,0,0.000885,0,0
0:11:1.950,1272.64,162.041,0,0.000885,0,0
0:11:5.135,1278.98,162.847,0,0.000885,0,0
0:11:8.347,1285.08,163.619,0,0.000885,0,0
0:11:11.539,1291.71,164.468,0,0.000885,0,0
0:11:14.744,1297.53,165.205,0,0.000885,0,0
0:11:17.950,1304.69,166.115,0,0.000885,0,0
0:11:21.147,1310.79,166.894,0,0.000885,0,0
0:11:24.335,1317.13,167.701,0,0.000885,0,0
0:11:27.561,1322.77,168.418,0,0.000885,0,0
0:11:30.740,1329.16,169.232,0,0.000885,0,0
0:11:33.940,1335.8,170.08,0,0.000885,0,0
0:11:37.156,1341.49,170.804,0,0.000885,0,0
0:11:40.338,1348.06,171.638,0,0.000885,0,0
0:11:43.544,1354.58,172.472,0,0.000885,0,0
0:11:46.744,1360.04,173.169,0,0.000885,0,0
0:11:49.937,1366.5,173.989,0,0.000885,0,0
0:11:53.145,1373.31,174.858,0,0.000885,0,0
0:11:56.355,1379.35,175.623,0,0.000885,0,0
0:11:59.546,1386.1,176.485,0,0.000885,0,0
0:12:2.758,1391.68,177.195,0,0.000885,0,0
0:12:5.955,1398.55,178.071,0,0.000885,0,0
0:12:9.151,1404.71,178.85,0,0.000885,0,0
0:12:12.368,1411.52,179.719,0,0.000885,0,0
0:12:15.543,1416.8,180.394,0,0.000885,0,0
0:12:18.756,1423.67,181.27,0,0.000885,0,0
0:12:21.960,1430.54,182.139,0,0.000885,0,0
0:12:25.144,1436.12,182.849,0,0.000885,0,0
0:12:28.364,1442.34,183.642,0,0.000885,0,0
0:12:31.546,1448.91,184.483,0,0.000885,0,0
0:12:34.736,1455.19,185.283,0,0.000885,0,0
0:12:37.954,1461.36,186.069,0,0.000885,0,0
0:12:41.149,1467.64,186.869,0,0.000885,0,0
0:12:44.353,1473.92,187.668,0,0.000885,0,0
0:12:47.570,1480.27,188.475,0,0.000885,0,0
0:12:50.755,1486.16,189.22,0,0.000885,0,0
0:12:53.951,1492.87,190.075,0,0.000885,0,0
0:12:57.158,1499.17,190.881,0,0.000885,0,0
0:12:58.320,1326.82,168.935,0,0.000885,0,0