Folder: Experiment-Files (part 70)

File: DataFile2021-07-03_084454.csv
Test ID:,Date Tested:,Time:,Test Type:,Diameter Avg. (mm):,Cyl. Corr. Factor:,Height (mm):,Age (days):,Weight (kN):,Break Type:,Ramp Rate (MPa/s):,Load at Break (kN):,Stress at Break (MPa):
12,7/3/2021,08:44,Cylinder,100,1,200,0,3.6,3,0.25,615.44,78.36
Sample Time,Load (kN),Stress (MPa),Long. Strain,Trans. Strain,Chan1 Deflection (mm),Chan2 Deflection (mm)
0:0:19.590,6.15634,0.786002,0,0.000885,0,0
0:0:20.978,12.9043,1.64095,0,0.000885,0,0
0:0:22.369,11.8456,1.50995,0,0.000885,0,0
0:0:23.758,12.6685,1.61337,0,0.000885,0,0
0:0:25.155,14.7192,1.87537,0,0.000885,0,0
0:0:26.562,18.3,2.33043,0,0.000885,0,0
0:0:27.958,22.2856,2.84064,0,0.000885,0,0
0:0:29.350,24.8077,3.1578,0,0.000885,0,0
0:0:30.759,26.6271,3.39222,0,0.000885,0,0
0:0:32.160,29.5006,3.75764,0,0.000885,0,0
0:0:33.554,32.3742,4.12306,0,0.000885,0,0
0:0:34.955,36.1285,4.5988,0,0.000885,0,0
0:0:36.370,38.0634,4.84701,0,0.000885,0,0
0:0:37.767,40.6434,5.17796,0,0.000885,0,0
0:0:39.162,43.7527,5.57096,0,0.000885,0,0
0:0:40.571,46.1592,5.87433,0,0.000885,0,0
0:0:41.969,49.2685,6.27423,0,0.000885,0,0
0:0:43.365,51.5549,6.56381,0,0.000885,0,0
0:0:44.758,54.4863,6.93613,0,0.000885,0,0
0:0:46.172,57.4755,7.31534,0,0.000885,0,0
0:0:47.567,59.882,7.6256,0,0.000885,0,0
0:0:48.961,62.7555,7.99102,0,0.000885,0,0
0:0:50.363,65.2777,8.30818,0,0.000885,0,0
0:0:51.768,68.209,8.68739,0,0.000885,0,0
0:0:53.163,71.2605,9.0735,0,0.000885,0,0
0:0:54.556,73.7248,9.38376,0,0.000885,0,0
0:0:55.965,76.7719,9.77677,0,0.000885,0,0
0:0:57.366,78.9426,10.0526,0,0.000885,0,0
0:0:58.761,82.2298,10.4662,0,0.000885,0,0
0:1:0.162,84.9254,10.811,0,0.000885,0,0
0:1:1.567,87.154,11.0937,0,0.000885,0,0
0:1:2.962,90.4412,11.5142,0,0.000885,0,0
0:1:4.353,93.4883,11.9004,0,0.000885,0,0
0:1:5.762,95.7168,12.1899,0,0.000885,0,0
0:1:7.163,98.8261,12.5829,0,0.000885,0,0
0:1:8.558,101.233,12.8863,0,0.000885,0,0
0:1:9.956,103.461,13.1759,0,0.000885,0,0
0:1:11.370,107.038,13.6309,0,0.000885,0,0
0:1:12.766,109.15,13.8998,0,0.000885,0,0
0:1:14.160,112.491,14.3204,0,0.000885,0,0
0:1:15.570,115.191,14.6651,0,0.000885,0,0
0:1:16.967,117.184,14.9203,0,0.000885,0,0
0:1:18.362,120.467,15.3408,0,0.000885,0,0
0:1:19.755,123.167,15.6787,0,0.000885,0,0
0:1:21.170,125.925,16.0303,0,0.000885,0,0
0:1:22.565,128.798,16.3957,0,0.000885,0,0
0:1:23.957,131.436,16.7336,0,0.000885,0,0
0:1:25.356,133.958,17.0576,0,0.000885,0,0
0:1:26.763,137.068,17.4506,0,0.000885,0,0
0:1:28.159,139.763,17.7954,0,0.000885,0,0
0:1:29.562,142.93,18.1953,0,0.000885,0,0
0:1:30.970,145.337,18.5055,0,0.000885,0,0
0:1:32.369,148.268,18.8778,0,0.000885,0,0
0:1:33.764,150.439,19.1536,0,0.000885,0,0
0:1:35.165,153.779,19.5811,0,0.000885,0,0
0:1:36.571,156.244,19.8914,0,0.000885,0,0
0:1:37.968,158.944,20.2361,0,0.000885,0,0
0:1:39.361,161.991,20.6222,0,0.000885,0,0
0:1:40.768,164.575,20.9532,0,0.000885,0,0
0:1:42.167,167.097,21.2772,0,0.000885,0,0
0:1:43.563,170.144,21.6633,0,0.000885,0,0
0:1:44.965,172.609,21.9805,0,0.000885,0,0
0:1:46.380,175.425,22.339,0,0.000885,0,0
0:1:47.774,177.889,22.6493,0,0.000885,0,0
0:1:49.169,181.229,23.0768,0,0.000885,0,0
0:1:50.574,183.752,23.3939,0,0.000885,0,0
0:1:51.978,186.216,23.7111,0,0.000885,0,0
0:1:53.371,189.205,24.0903,0,0.000885,0,0
0:1:54.767,192.199,24.4695,0,0.000885,0,0
0:1:56.170,194.952,24.8211,0,0.000885,0,0
0:1:57.558,197.474,25.1452,0,0.000885,0,0
0:1:58.947,200.174,25.4899,0,0.000885,0,0
0:2:0.357,203.399,25.8967,0,0.000885,0,0
0:2:1.748,205.922,26.2208,0,0.000885,0,0
0:2:3.159,208.679,26.5724,0,0.000885,0,0
0:2:4.553,211.317,26.9033,0,0.000885,0,0
0:2:5.952,213.724,27.2136,0,0.000885,0,0
0:2:7.350,216.833,27.6066,0,0.000885,0,0
0:2:8.743,219.586,27.9582,0,0.000885,0,0
0:2:10.148,222.166,28.2892,0,0.000885,0,0
0:2:11.553,225.276,28.6822,0,0.000885,0,0
0:2:12.962,227.74,28.9993,0,0.000885,0,0
0:2:14.357,229.911,29.2751,0,0.000885,0,0
0:2:15.769,233.194,29.6888,0,0.000885,0,0
0:2:17.154,235.894,30.0336,0,0.000885,0,0
0:2:18.557,238.825,30.4059,0,0.000885,0,0
0:2:19.951,241.521,30.7506,0,0.000885,0,0
0:2:21.353,244.043,31.0747,0,0.000885,0,0
0:2:22.744,246.859,31.4332,0,0.000885,0,0
0:2:24.147,249.91,31.8193,0,0.000885,0,0
0:2:25.552,252.254,32.1158,0,0.000885,0,0
0:2:26.952,254.719,32.4329,0,0.000885,0,0
0:2:28.345,258.237,32.8811,0,0.000885,0,0
0:2:29.767,261.053,33.2396,0,0.000885,0,0
0:2:31.167,263.633,33.5637,0,0.000885,0,0
0:2:32.553,266.391,33.9153,0,0.000885,0,0
0:2:33.961,269.028,34.2532,0,0.000885,0,0
0:2:35.362,271.786,34.6048,0,0.000885,0,0
0:2:36.766,274.308,34.9288,0,0.000885,0,0
0:2:38.154,276.946,35.2598,0,0.000885,0,0
0:2:39.543,280.113,35.6666,0,0.000885,0,0
0:2:40.947,282.578,35.9768,0,0.000885,0,0
0:2:42.344,285.042,36.294,0,0.000885,0,0
0:2:43.721,288.267,36.7008,0,0.000885,0,0
0:2:45.110,291.025,37.0524,0,0.000885,0,0
0:2:46.512,293.841,37.411,0,0.000885,0,0
0:2:47.897,296.185,37.7143,0,0.000885,0,0
0:2:49.278,298.885,38.0522,0,0.000885,0,0
0:2:50.677,301.465,38.3831,0,0.000885,0,0
0:2:52.069,304.632,38.7899,0,0.000885,0,0
0:2:53.454,306.976,39.0864,0,0.000885,0,0
0:2:54.845,310.086,39.4794,0,0.000885,0,0
0:2:56.251,312.314,39.7621,0,0.000885,0,0
0:2:57.669,315.597,40.1826,0,0.000885,0,0
0:2:59.056,318.177,40.5136,0,0.000885,0,0
0:3:0.466,320.761,40.8376,0,0.000885,0,0
0:3:1.859,323.986,41.2513,0,0.000885,0,0
0:3:3.243,326.451,41.5616,0,0.000885,0,0
0:3:4.644,329.146,41.9063,0,0.000885,0,0
0:3:6.052,331.962,42.2649,0,0.000885,0,0
0:3:7.470,334.72,42.6165,0,0.000885,0,0
0:3:8.858,337.242,42.9405,0,0.000885,0,0
0:3:10.258,340.231,43.3198,0,0.000885,0,0
0:3:11.660,342.931,43.6645,0,0.000885,0,0
0:3:13.063,345.511,43.9886,0,0.000885,0,0
0:3:14.461,347.975,44.3057,0,0.000885,0,0
0:3:15.868,351.374,44.7401,0,0.000885,0,0
0:3:17.256,353.487,45.009,0,0.000885,0,0
0:3:18.638,356.89,45.4433,0,0.000885,0,0
0:3:20.029,359.879,45.8226,0,0.000885,0,0
0:3:21.430,361.872,46.0777,0,0.000885,0,0
0:3:22.813,364.572,46.4155,0,0.000885,0,0
0:3:24.193,367.681,46.8154,0,0.000885,0,0
0:3:25.592,370.083,47.1188,0,0.000885,0,0
0:3:26.986,373.486,47.5531,0,0.000885,0,0
0:3:28.366,375.772,47.8427,0,0.000885,0,0
0:3:29.772,378.063,48.1392,0,0.000885,0,0
0:3:31.177,380.581,48.4564,0,0.000885,0,0
0:3:32.558,384.335,48.9321,0,0.000885,0,0
0:3:33.940,387.271,49.3113,0,0.000885,0,0
0:3:35.338,389.322,49.5733,0,0.000885,0,0
0:3:36.733,392.253,49.9456,0,0.000885,0,0
0:3:38.114,394.895,50.2766,0,0.000885,0,0
0:3:39.498,397.591,50.6213,0,0.000885,0,0
0:3:40.901,399.704,50.8902,0,0.000885,0,0
0:3:42.289,403.165,51.3315,0,0.000885,0,0
0:3:43.671,405.745,51.6624,0,0.000885,0,0
0:3:45.076,408.56,52.0209,0,0.000885,0,0
0:3:46.472,411.082,52.3381,0,0.000885,0,0
0:3:47.861,414.25,52.7449,0,0.000885,0,0
0:3:49.256,416.42,53.0207,0,0.000885,0,0
0:3:50.660,419.645,53.4275,0,0.000885,0,0
0:3:52.068,422.225,53.7584,0,0.000885,0,0
0:3:53.448,424.863,54.0963,0,0.000885,0,0
0:3:54.835,427.621,54.4479,0,0.000885,0,0
0:3:56.242,430.201,54.772,0,0.000885,0,0
0:3:57.621,432.839,55.1098,0,0.000885,0,0
0:3:59.007,435.539,55.4545,0,0.000885,0,0
0:4:0.408,438.354,55.8131,0,0.000885,0,0
0:4:1.796,442.051,56.2819,0,0.000885,0,0
0:4:3.178,444.102,56.5439,0,0.000885,0,0
0:4:4.574,446.917,56.9024,0,0.000885,0,0
0:4:5.980,449.613,57.2472,0,0.000885,0,0
0:4:7.371,452.255,57.585,0,0.000885,0,0
0:4:8.765,454.657,57.8884,0,0.000885,0,0
0:4:10.174,457.006,58.1849,0,0.000885,0,0
0:4:11.564,460.173,58.5916,0,0.000885,0,0
0:4:12.945,462.753,58.9226,0,0.000885,0,0
0:4:14.331,465.92,59.3225,0,0.000885,0,0
0:4:15.733,468.972,59.7086,0,0.000885,0,0
0:4:17.121,471.667,60.0533,0,0.000885,0,0
0:4:18.505,473.896,60.336,0,0.000885,0,0
0:4:19.902,476.889,60.7221,0,0.000885,0,0
0:4:21.297,479.821,61.0944,0,0.000885,0,0
0:4:22.679,482.516,61.4392,0,0.000885,0,0
0:4:24.070,484.923,61.7426,0,0.000885,0,0
0:4:25.473,487.619,62.0873,0,0.000885,0,0
0:4:26.872,490.906,62.501,0,0.000885,0,0
0:4:28.262,492.956,62.763,0,0.000885,0,0
0:4:29.671,495.95,63.1491,0,0.000885,0,0
0:4:31.071,499.055,63.5421,0,0.000885,0,0
0:4:32.474,501.577,63.8661,0,0.000885,0,0
0:4:33.862,503.984,64.1695,0,0.000885,0,0
0:4:35.261,506.857,64.5349,0,0.000885,0,0
0:4:36.677,509.966,64.9279,0,0.000885,0,0
0:4:38.068,512.604,65.2658,0,0.000885,0,0
0:4:39.469,515.184,65.5967,0,0.000885,0,0
0:4:40.875,518.765,66.0518,0,0.000885,0,0
0:4:42.269,520.522,66.2724,0,0.000885,0,0
0:4:43.673,524.041,66.7206,0,0.000885,0,0
0:4:45.072,526.269,67.0101,0,0.000885,0,0
0:4:46.474,529.085,67.3687,0,0.000885,0,0
0:4:47.857,531.607,67.6858,0,0.000885,0,0
0:4:49.236,534.543,68.0581,0,0.000885,0,0
0:4:50.642,537.123,68.3891,0,0.000885,0,0
0:4:52.031,540.228,68.7821,0,0.000885,0,0
0:4:53.410,542.634,69.0924,0,0.000885,0,0
0:4:54.801,545.392,69.444,0,0.000885,0,0
0:4:56.207,548.208,69.8025,0,0.000885,0,0
0:4:57.590,550.61,70.1059,0,0.000885,0,0
0:4:58.968,553.425,70.4644,0,0.000885,0,0
0:5:0.376,556.419,70.8436,0,0.000885,0,0
0:5:1.774,559.173,71.1953,0,0.000885,0,0
0:5:3.164,561.815,71.5331,0,0.000885,0,0
0:5:4.561,564.862,71.9192,0,0.000885,0,0
0:5:5.964,566.975,72.1881,0,0.000885,0,0
0:5:7.356,570.258,72.6087,0,0.000885,0,0
0:5:8.756,573.073,72.9672,0,0.000885,0,0
0:5:10.154,575.538,73.2775,0,0.000885,0,0
0:5:11.560,578.589,73.6705,0,0.000885,0,0
0:5:12.944,580.991,73.9739,0,0.000885,0,0
0:5:14.334,583.455,74.291,0,0.000885,0,0
0:5:15.738,586.445,74.6702,0,0.000885,0,0
0:5:17.124,588.264,74.8977,0,0.000885,0,0
0:5:18.513,591.378,75.2976,0,0.000885,0,0
0:5:19.918,594.603,75.7044,0,0.000885,0,0
0:5:21.322,597.423,76.063,0,0.000885,0,0
0:5:22.710,600.123,76.4077,0,0.000885,0,0
0:5:24.096,602.765,76.7455,0,0.000885,0,0
0:5:25.508,604.584,76.98,0,0.000885,0,0
0:5:26.902,605.759,77.1248,0,0.000885,0,0
0:5:28.293,610.158,77.6901,0,0.000885,0,0
0:5:29.691,613.33,78.09,0,0.000885,0,0
0:5:31.097,586.271,74.6495,0,0.000885,0,0
0:5:31.710,515.949,65.6932,0,0.000885,0,0

File: DataFile2021-07-03_085419.csv
Test ID:,Date Tested:,Time:,Test Type:,Diameter Avg. (mm):,Cyl. Corr. Factor:,Height (mm):,Age (days):,Weight (kN):,Break Type:,Ramp Rate (MPa/s):,Load at Break (kN):,Stress at Break (MPa):
12,7/3/2021,08:54,Cylinder,100,1,200,0,3.6,3,0.25,491.72,62.61
Sample Time,Load (kN),Stress (MPa),Long. Strain,Trans. Strain,Chan1 Deflection (mm),Chan2 Deflection (mm)
0:0:5.643,6.15634,0.786002,0,0.000885,0,0
0:0:6.736,7.15719,0.910108,0,0.000885,0,0
0:0:7.831,9.09216,1.15832,0,0.000885,0,0
0:0:8.926,10.907,1.38585,0,0.000885,0,0
0:0:10.018,13.6071,1.73058,0,0.000885,0,0
0:0:11.112,15.72,1.99948,0,0.000885,0,0
0:0:12.225,17.8285,2.26838,0,0.000885,0,0
0:0:13.321,20.2928,2.58553,0,0.000885,0,0
0:0:14.415,22.4635,2.86132,0,0.000885,0,0
0:0:15.512,24.87,3.16469,0,0.000885,0,0
0:0:16.615,27.0363,3.44048,0,0.000885,0,0
0:0:17.725,28.74,3.66112,0,0.000885,0,0
0:0:18.820,31.0263,3.9507,0,0.000885,0,0
0:0:19.913,33.077,4.2127,0,0.000885,0,0
0:0:21.009,35.3678,4.50228,0,0.000885,0,0
0:0:22.122,37.6542,4.79186,0,0.000885,0,0
0:0:23.228,39.647,5.04696,0,0.000885,0,0
0:0:24.321,41.7599,5.31586,0,0.000885,0,0
0:0:25.414,43.7527,5.57096,0,0.000885,0,0
0:0:26.526,46.1014,5.86744,0,0.000885,0,0
0:0:27.630,48.6813,6.19839,0,0.000885,0,0
0:0:28.726,50.6741,6.45349,0,0.000885,0,0
0:0:29.821,52.7248,6.71549,0,0.000885,0,0
0:0:30.919,54.9533,6.99818,0,0.000885,0,0
0:0:32.031,57.0084,7.26018,0,0.000885,0,0
0:0:33.126,59.2948,7.54976,0,0.000885,0,0
0:0:34.222,61.1719,7.79108,0,0.000885,0,0
0:0:35.318,63.227,8.05308,0,0.000885,0,0
0:0:36.422,66.0383,8.4116,0,0.000885,0,0
0:0:37.531,67.5062,8.59776,0,0.000885,0,0
0:0:38.625,70.3219,8.95629,0,0.000885,0,0
0:0:39.717,71.6119,9.11487,0,0.000885,0,0
0:0:40.813,74.2497,9.45271,0,0.000885,0,0
0:0:41.926,76.3048,9.71471,0,0.000885,0,0
0:0:43.030,78.4755,9.9905,0,0.000885,0,0
0:0:44.125,80.8776,10.3008,0,0.000885,0,0
0:0:45.219,82.6969,10.5283,0,0.000885,0,0
0:0:46.314,85.4548,10.8799,0,0.000885,0,0
0:0:47.427,87.4476,11.135,0,0.000885,0,0
0:0:48.523,89.089,11.3419,0,0.000885,0,0
0:0:49.619,91.6111,11.6659,0,0.000885,0,0
0:0:50.714,93.8397,11.9486,0,0.000885,0,0
0:0:51.828,95.7747,12.1968,0,0.000885,0,0
0:0:52.929,97.5362,12.4175,0,0.000885,0,0
0:0:54.024,100.41,12.7829,0,0.000885,0,0
0:0:55.117,101.993,12.9828,0,0.000885,0,0
0:0:56.217,103.928,13.231,0,0.000885,0,0
0:0:57.328,106.215,13.5206,0,0.000885,0,0
0:0:58.424,108.212,13.7757,0,0.000885,0,0
0:0:59.518,110.85,14.1136,0,0.000885,0,0
0:1:0.614,113.545,14.4583,0,0.000885,0,0
0:1:1.719,114.955,14.6376,0,0.000885,0,0
0:1:2.825,117.357,14.9409,0,0.000885,0,0
0:1:3.919,119.59,15.2236,0,0.000885,0,0
0:1:5.011,121.935,15.527,0,0.000885,0,0
0:1:6.117,123.46,15.72,0,0.000885,0,0
0:1:7.227,126.57,16.113,0,0.000885,0,0
0:1:8.320,128.327,16.3406,0,0.000885,0,0
0:1:9.413,130.088,16.5612,0,0.000885,0,0
0:1:10.509,132.668,16.8922,0,0.000885,0,0
0:1:11.615,135.133,17.2024,0,0.000885,0,0
0:1:12.718,137.183,17.4644,0,0.000885,0,0
0:1:13.814,139.527,17.7678,0,0.000885,0,0
0:1:14.908,141.582,18.0298,0,0.000885,0,0
0:1:16.002,142.463,18.1401,0,0.000885,0,0
0:1:17.114,145.51,18.5262,0,0.000885,0,0
0:1:18.215,147.565,18.7882,0,0.000885,0,0
0:1:19.308,150.145,19.1192,0,0.000885,0,0
0:1:20.401,151.907,19.3398,0,0.000885,0,0
0:1:21.502,154.015,19.6087,0,0.000885,0,0
0:1:22.612,155.892,19.85,0,0.000885,0,0
0:1:23.710,158.357,20.1603,0,0.000885,0,0
0:1:24.803,160.994,20.4981,0,0.000885,0,0
0:1:25.897,162.347,20.6705,0,0.000885,0,0
0:1:27.009,164.455,20.9394,0,0.000885,0,0
0:1:28.107,167.329,21.3048,0,0.000885,0,0
0:1:29.198,169.384,21.5668,0,0.000885,0,0
0:1:30.290,171.728,21.8633,0,0.000885,0,0
0:1:31.397,173.841,22.1322,0,0.000885,0,0
0:1:32.504,176.012,22.408,0,0.000885,0,0
0:1:33.597,177.711,22.6286,0,0.000885,0,0
0:1:34.689,179.588,22.863,0,0.000885,0,0
0:1:35.792,182.168,23.194,0,0.000885,0,0
0:1:36.900,184.397,23.4766,0,0.000885,0,0
0:1:38.000,187.034,23.8145,0,0.000885,0,0
0:1:39.094,188.444,23.9938,0,0.000885,0,0
0:1:40.190,190.967,24.3178,0,0.000885,0,0
0:1:41.294,193.662,24.6557,0,0.000885,0,0
0:1:42.396,194.779,24.8004,0,0.000885,0,0
0:1:43.490,197.537,25.1521,0,0.000885,0,0
0:1:44.584,199.294,25.3727,0,0.000885,0,0
0:1:45.687,200.935,25.5864,0,0.000885,0,0
0:1:46.792,203.987,25.9726,0,0.000885,0,0
0:1:47.886,205.512,26.1656,0,0.000885,0,0
0:1:48.992,207.621,26.4345,0,0.000885,0,0
0:1:50.086,210.379,26.7861,0,0.000885,0,0
0:1:51.186,212.14,27.0137,0,0.000885,0,0
0:1:52.290,214.542,27.317,0,0.000885,0,0
0:1:53.388,216.477,27.5652,0,0.000885,0,0
0:1:54.485,218.884,27.8686,0,0.000885,0,0
0:1:55.589,221.406,28.1927,0,0.000885,0,0
0:1:56.698,222.754,28.365,0,0.000885,0,0
0:1:57.792,225.16,28.6684,0,0.000885,0,0
0:1:58.889,227.682,28.9925,0,0.000885,0,0
0:1:59.986,229.853,29.2682,0,0.000885,0,0
0:2:1.092,231.374,29.4613,0,0.000885,0,0
0:2:2.196,233.545,29.7371,0,0.000885,0,0
0:2:3.287,236.125,30.068,0,0.000885,0,0
0:2:4.389,237.771,30.2749,0,0.000885,0,0
0:2:5.485,240.76,30.6541,0,0.000885,0,0
0:2:6.591,242.228,30.8402,0,0.000885,0,0
0:2:7.694,245.217,31.2195,0,0.000885,0,0
0:2:8.789,246.801,31.4263,0,0.000885,0,0
0:2:9.892,248.62,31.6538,0,0.000885,0,0
0:2:10.996,251.671,32.0468,0,0.000885,0,0
0:2:12.098,254.189,32.364,0,0.000885,0,0
0:2:13.194,255.19,32.495,0,0.000885,0,0
0:2:14.290,257.886,32.8328,0,0.000885,0,0
0:2:15.387,260.35,33.15,0,0.000885,0,0
0:2:16.493,261.876,33.343,0,0.000885,0,0
0:2:17.590,264.046,33.6188,0,0.000885,0,0
0:2:18.694,266.155,33.8877,0,0.000885,0,0
0:2:19.789,268.677,34.2118,0,0.000885,0,0
0:2:20.886,271.026,34.5083,0,0.000885,0,0
0:2:22.002,273.192,34.7841,0,0.000885,0,0
0:2:23.096,274.251,34.9219,0,0.000885,0,0
0:2:24.192,276.186,35.1633,0,0.000885,0,0
0:2:25.287,278.881,35.508,0,0.000885,0,0
0:2:26.395,281.11,35.7907,0,0.000885,0,0
0:2:27.502,283.752,36.1285,0,0.000885,0,0
0:2:28.588,285.861,36.3974,0,0.000885,0,0
0:2:29.693,287.916,36.6594,0,0.000885,0,0
0:2:30.790,289.966,36.9214,0,0.000885,0,0
0:2:31.893,292.257,37.211,0,0.000885,0,0
0:2:32.985,294.308,37.473,0,0.000885,0,0
0:2:34.090,296.594,37.7626,0,0.000885,0,0
0:2:35.194,298.356,37.9901,0,0.000885,0,0
0:2:36.291,301.229,38.3555,0,0.000885,0,0
0:2:37.393,302.635,38.5348,0,0.000885,0,0
0:2:38.491,305.686,38.9209,0,0.000885,0,0
0:2:39.584,306.861,39.0726,0,0.000885,0,0
0:2:40.693,309.263,39.376,0,0.000885,0,0
0:2:41.791,311.491,39.6586,0,0.000885,0,0
0:2:42.897,314.191,40.0034,0,0.000885,0,0
0:2:43.992,316.304,40.2723,0,0.000885,0,0
0:2:45.090,317.946,40.4791,0,0.000885,0,0
0:2:46.198,320.232,40.7756,0,0.000885,0,0
0:2:47.302,322.403,41.0514,0,0.000885,0,0
0:2:48.392,324.689,41.341,0,0.000885,0,0
0:2:49.486,326.624,41.5892,0,0.000885,0,0
0:2:50.594,329.088,41.8994,0,0.000885,0,0
0:2:51.702,331.081,42.1545,0,0.000885,0,0
0:2:52.794,333.545,42.4717,0,0.000885,0,0
0:2:53.891,335.245,42.6854,0,0.000885,0,0
0:2:54.998,337.415,42.9612,0,0.000885,0,0
0:2:56.097,339.644,43.2439,0,0.000885,0,0
0:2:57.201,341.993,43.5404,0,0.000885,0,0
0:2:58.287,343.928,43.7886,0,0.000885,0,0
0:2:59.398,346.45,44.1127,0,0.000885,0,0
0:3:0.495,348.385,44.3609,0,0.000885,0,0
0:3:1.603,350.204,44.5884,0,0.000885,0,0
0:3:2.701,352.433,44.8711,0,0.000885,0,0
0:3:3.795,354.599,45.1469,0,0.000885,0,0
0:3:4.901,356.538,45.3951,0,0.000885,0,0
0:3:5.998,358.883,45.6916,0,0.000885,0,0
0:3:7.102,361.111,45.9811,0,0.000885,0,0
0:3:8.195,363.691,46.3052,0,0.000885,0,0
0:3:9.294,365.862,46.581,0,0.000885,0,0
0:3:10.397,367.912,46.843,0,0.000885,0,0
0:3:11.497,369.558,47.0567,0,0.000885,0,0
0:3:12.602,371.257,47.2705,0,0.000885,0,0
0:3:13.697,373.958,47.6152,0,0.000885,0,0
0:3:14.795,376.36,47.9186,0,0.000885,0,0
0:3:15.902,378.646,48.2081,0,0.000885,0,0
0:3:17.008,380.35,48.4288,0,0.000885,0,0
0:3:18.098,382.872,48.7459,0,0.000885,0,0
0:3:19.202,384.629,48.9735,0,0.000885,0,0
0:3:20.298,387.151,49.2906,0,0.000885,0,0
0:3:21.404,389.38,49.5802,0,0.000885,0,0
0:3:22.506,391.199,49.8077,0,0.000885,0,0
0:3:23.601,393.37,50.0835,0,0.000885,0,0
0:3:24.698,395.714,50.3869,0,0.000885,0,0
0:3:25.802,397.711,50.6351,0,0.000885,0,0
0:3:26.900,399.94,50.9247,0,0.000885,0,0
0:3:27.994,402.52,51.2487,0,0.000885,0,0
0:3:29.088,404.455,51.4969,0,0.000885,0,0
0:3:30.185,406.799,51.7934,0,0.000885,0,0
0:3:31.289,408.676,52.0347,0,0.000885,0,0
0:3:32.391,411.082,52.3381,0,0.000885,0,0
0:3:33.478,413.369,52.6346,0,0.000885,0,0
0:3:34.591,415.597,52.9173,0,0.000885,0,0
0:3:35.697,417.003,53.0965,0,0.000885,0,0
0:3:36.800,420.054,53.4826,0,0.000885,0,0
0:3:37.903,421.402,53.655,0,0.000885,0,0
0:3:38.999,423.809,53.9584,0,0.000885,0,0
0:3:40.097,426.389,54.2893,0,0.000885,0,0
0:3:41.202,428.208,54.5237,0,0.000885,0,0
0:3:42.308,430.259,54.7857,0,0.000885,0,0
0:3:43.397,432.607,55.0822,0,0.000885,0,0
0:3:44.501,434.249,55.2891,0,0.000885,0,0
0:3:45.597,437.007,55.6407,0,0.000885,0,0
0:3:46.703,438.884,55.882,0,0.000885,0,0
0:3:47.797,441.05,56.1578,0,0.000885,0,0
0:3:48.891,443.341,56.4474,0,0.000885,0,0
0:3:49.999,445.507,56.7232,0,0.000885,0,0
0:3:51.098,448.029,57.0472,0,0.000885,0,0
0:3:52.202,450.084,57.3092,0,0.000885,0,0
0:3:53.300,452.135,57.5712,0,0.000885,0,0
0:3:54.397,453.954,57.7988,0,0.000885,0,0
0:3:55.491,456.592,58.1366,0,0.000885,0,0
0:3:56.600,458.469,58.371,0,0.000885,0,0
0:3:57.701,460.818,58.6744,0,0.000885,0,0
0:3:58.805,462.869,58.9364,0,0.000885,0,0
0:3:59.901,465.449,59.2604,0,0.000885,0,0
0:4:1.004,467.326,59.5018,0,0.000885,0,0
0:4:2.107,469.087,59.7293,0,0.000885,0,0
0:4:3.206,471.138,59.9844,0,0.000885,0,0
0:4:4.300,471.258,60.0051,0,0.000885,0,0
0:4:5.405,474.367,60.3981,0,0.000885,0,0
0:4:6.504,477.824,60.8393,0,0.000885,0,0
0:4:7.599,479.994,61.1151,0,0.000885,0,0
0:4:8.703,482.401,61.4185,0,0.000885,0,0
0:4:9.799,484.042,61.6322,0,0.000885,0,0
0:4:10.905,483.281,61.5357,0,0.000885,0,0
0:4:12.008,485.568,61.8253,0,0.000885,0,0
0:4:13.100,488.032,62.1356,0,0.000885,0,0
0:4:14.203,484.981,61.7494,0,0.000885,0,0
0:4:15.305,487.796,62.108,0,0.000885,0,0
0:4:16.407,491.137,62.5354,0,0.000885,0,0
0:4:17.507,480.23,61.1427,0,0.000885,0,0
0:4:18.601,473.66,60.3084,0,0.000885,0,0
0:4:19.331,445.627,56.737,0,0.000885,0,0