Folder: Experiment-Files (part 58)

File: DataFile2021-06-30_045007.csv
Test ID:,Date Tested:,Time:,Test Type:,Diameter Avg. (mm):,Cyl. Corr. Factor:,Height (mm):,Age (days):,Weight (kN):,Break Type:,Ramp Rate (MPa/s):,Load at Break (kN):,Stress at Break (MPa):
12,6/30/2021,04:50,Cylinder,150,1,300,0,3.6,3,0.24,650.78,36.82
Sample Time,Load (kN),Stress (MPa),Long. Strain,Trans. Strain,Chan1 Deflection (mm),Chan2 Deflection (mm)
0:0:21.018,5.8672,0.330948,0,0.000885,0,0
0:0:21.718,16.4228,0.930792,0,0.000885,0,0
0:0:22.409,15.3063,0.868739,0,0.000885,0,0
0:0:23.101,14.8971,0.84116,0,0.000885,0,0
0:0:23.799,16.2449,0.917003,0,0.000885,0,0
0:0:24.491,19.2386,1.08937,0,0.000885,0,0
0:0:25.187,23.1663,1.31,0,0.000885,0,0
0:0:25.886,27.0986,1.53064,0,0.000885,0,0
0:0:26.588,31.0263,1.75816,0,0.000885,0,0
0:0:27.297,34.4292,1.95122,0,0.000885,0,0
0:0:28.001,37.5385,2.12359,0,0.000885,0,0
0:0:28.696,39.3534,2.22701,0,0.000885,0,0
0:0:29.397,41.8756,2.3718,0,0.000885,0,0
0:0:30.094,45.4519,2.57174,0,0.000885,0,0
0:0:30.790,48.9749,2.77169,0,0.000885,0,0
0:0:31.487,51.8485,2.93717,0,0.000885,0,0
0:0:32.198,55.1313,3.11643,0,0.000885,0,0
0:0:32.906,58.4763,3.30948,0,0.000885,0,0
0:0:33.604,61.3499,3.47496,0,0.000885,0,0
0:0:34.298,64.3391,3.64043,0,0.000885,0,0
0:0:34.998,66.9769,3.79212,0,0.000885,0,0
0:0:35.695,70.6155,3.99896,0,0.000885,0,0
0:0:36.393,73.7827,4.17822,0,0.000885,0,0
0:0:37.105,77.0654,4.36438,0,0.000885,0,0
0:0:37.810,79.7077,4.50917,0,0.000885,0,0
0:0:38.511,82.2298,4.65396,0,0.000885,0,0
0:0:39.206,85.5126,4.84012,0,0.000885,0,0
0:0:39.902,89.734,5.07454,0,0.000885,0,0
0:0:40.602,92.7855,5.25381,0,0.000885,0,0
0:0:41.297,95.3076,5.3917,0,0.000885,0,0
0:0:42.004,98.4169,5.57096,0,0.000885,0,0
0:0:42.713,101.348,5.73644,0,0.000885,0,0
0:0:43.413,105.396,5.96397,0,0.000885,0,0
0:0:44.114,107.74,6.09497,0,0.000885,0,0
0:0:44.810,110.027,6.22597,0,0.000885,0,0
0:0:45.505,113.487,6.41902,0,0.000885,0,0
0:0:46.206,116.89,6.61207,0,0.000885,0,0
0:0:46.916,119.235,6.74997,0,0.000885,0,0
0:0:47.624,123.46,6.98439,0,0.000885,0,0
0:0:48.321,126.392,7.14986,0,0.000885,0,0
0:0:49.017,128.798,7.28776,0,0.000885,0,0
0:0:49.716,132.081,7.47392,0,0.000885,0,0
0:0:50.410,135.19,7.65318,0,0.000885,0,0
0:0:51.108,137.886,7.80487,0,0.000885,0,0
0:0:51.818,142.405,8.05997,0,0.000885,0,0
0:0:52.524,145.452,8.23234,0,0.000885,0,0
0:0:53.226,148.032,8.37713,0,0.000885,0,0
0:0:53.921,150.381,8.50813,0,0.000885,0,0
0:0:54.618,153.37,8.6805,0,0.000885,0,0
0:0:55.318,157.654,8.92182,0,0.000885,0,0
0:0:56.012,160.292,9.0735,0,0.000885,0,0
0:0:56.719,162.992,9.22519,0,0.000885,0,0
0:0:57.428,166.568,9.42513,0,0.000885,0,0
0:0:58.128,169.557,9.5975,0,0.000885,0,0
0:0:58.828,172.845,9.78366,0,0.000885,0,0
0:0:59.523,176.07,9.96292,0,0.000885,0,0
0:1:0.219,178.707,10.1146,0,0.000885,0,0
0:1:0.920,181.759,10.287,0,0.000885,0,0
0:1:1.618,184.223,10.4249,0,0.000885,0,0
0:1:2.329,187.857,10.6317,0,0.000885,0,0
0:1:3.037,191.26,10.8248,0,0.000885,0,0
0:1:3.726,194.249,10.9902,0,0.000885,0,0
0:1:4.421,197.652,11.1833,0,0.000885,0,0
0:1:5.114,200.526,11.3488,0,0.000885,0,0
0:1:5.802,203.226,11.5005,0,0.000885,0,0
0:1:6.496,206.331,11.6728,0,0.000885,0,0
0:1:7.201,208.915,11.8245,0,0.000885,0,0
0:1:7.904,212.843,12.0451,0,0.000885,0,0
0:1:8.601,216.361,12.2451,0,0.000885,0,0
0:1:9.291,218.826,12.383,0,0.000885,0,0
0:1:9.986,222.58,12.5967,0,0.000885,0,0
0:1:10.682,224.751,12.7208,0,0.000885,0,0
0:1:11.385,228.034,12.907,0,0.000885,0,0
0:1:12.092,231.201,13.0862,0,0.000885,0,0
0:1:12.794,234.074,13.2448,0,0.000885,0,0
0:1:13.492,237.357,13.431,0,0.000885,0,0
0:1:14.195,240.644,13.6171,0,0.000885,0,0
0:1:14.890,243.224,13.7619,0,0.000885,0,0
0:1:15.585,245.982,13.9205,0,0.000885,0,0
0:1:16.290,249.91,14.1411,0,0.000885,0,0
0:1:16.996,252.668,14.2997,0,0.000885,0,0
0:1:17.697,255.773,14.4721,0,0.000885,0,0
0:1:18.392,259.118,14.6651,0,0.000885,0,0
0:1:19.091,261.876,14.8168,0,0.000885,0,0
0:1:19.791,265.101,15.003,0,0.000885,0,0
0:1:20.496,268.561,15.196,0,0.000885,0,0
0:1:21.185,271.377,15.3546,0,0.000885,0,0
0:1:21.885,274.308,15.5201,0,0.000885,0,0
0:1:22.587,277.533,15.7063,0,0.000885,0,0
0:1:23.293,280.821,15.8924,0,0.000885,0,0
0:1:23.997,284.277,16.0855,0,0.000885,0,0
0:1:24.686,287.271,16.2578,0,0.000885,0,0
0:1:25.375,289.615,16.3888,0,0.000885,0,0
0:1:26.069,292.608,16.5612,0,0.000885,0,0
0:1:26.774,295.891,16.7474,0,0.000885,0,0
0:1:27.477,298.529,16.8922,0,0.000885,0,0
0:1:28.170,302.11,17.099,0,0.000885,0,0
0:1:28.862,305.686,17.2989,0,0.000885,0,0
0:1:29.552,308.386,17.4506,0,0.000885,0,0
0:1:30.246,311.843,17.6437,0,0.000885,0,0
0:1:30.937,314.307,17.7885,0,0.000885,0,0
0:1:31.638,317.18,17.9471,0,0.000885,0,0
0:1:32.342,320.29,18.1263,0,0.000885,0,0
0:1:33.038,323.75,18.3194,0,0.000885,0,0
0:1:33.732,326.975,18.5055,0,0.000885,0,0
0:1:34.423,329.969,18.671,0,0.000885,0,0
0:1:35.113,332.9,18.8365,0,0.000885,0,0
0:1:35.810,336.477,19.0433,0,0.000885,0,0
0:1:36.505,338.883,19.1743,0,0.000885,0,0
0:1:37.208,341.521,19.326,0,0.000885,0,0
0:1:37.912,345.742,19.5673,0,0.000885,0,0
0:1:38.601,348.5,19.719,0,0.000885,0,0
0:1:39.294,351.725,19.9052,0,0.000885,0,0
0:1:39.987,354.425,20.0568,0,0.000885,0,0
0:1:40.696,357.299,20.2223,0,0.000885,0,0
0:1:41.392,360.288,20.3878,0,0.000885,0,0
0:1:42.097,363.575,20.574,0,0.000885,0,0
0:1:42.798,367.152,20.7739,0,0.000885,0,0
0:1:43.494,369.496,20.9118,0,0.000885,0,0
0:1:44.193,372.605,21.0842,0,0.000885,0,0
0:1:44.882,376.186,21.291,0,0.000885,0,0
0:1:45.585,378.882,21.4427,0,0.000885,0,0
0:1:46.281,381.697,21.6013,0,0.000885,0,0
0:1:46.987,384.807,21.7736,0,0.000885,0,0
0:1:47.683,388.619,21.9943,0,0.000885,0,0
0:1:48.385,391.786,22.1735,0,0.000885,0,0
0:1:49.079,394.66,22.3321,0,0.000885,0,0
0:1:49.770,397.711,22.5045,0,0.000885,0,0
0:1:50.462,400.642,22.67,0,0.000885,0,0
0:1:51.158,403.752,22.8492,0,0.000885,0,0
0:1:51.862,407.035,23.0354,0,0.000885,0,0
0:1:52.565,409.792,23.1871,0,0.000885,0,0
0:1:53.256,412.96,23.3663,0,0.000885,0,0
0:1:53.946,416.185,23.5525,0,0.000885,0,0
0:1:54.641,418.942,23.7042,0,0.000885,0,0
0:1:55.331,421.816,23.8696,0,0.000885,0,0
0:1:56.024,424.921,24.0489,0,0.000885,0,0
0:1:56.730,428.444,24.242,0,0.000885,0,0
0:1:57.431,431.669,24.4281,0,0.000885,0,0
0:1:58.126,434.133,24.566,0,0.000885,0,0
0:1:58.816,437.358,24.7522,0,0.000885,0,0
0:1:59.507,440.699,24.9383,0,0.000885,0,0
0:2:0.202,443.692,25.1107,0,0.000885,0,0
0:2:0.900,446.508,25.2693,0,0.000885,0,0
0:2:1.603,450.32,25.483,0,0.000885,0,0
0:2:2.305,453.487,25.6623,0,0.000885,0,0
0:2:3.001,456.361,25.8278,0,0.000885,0,0
0:2:3.695,459.056,25.9794,0,0.000885,0,0
0:2:4.397,461.757,26.1311,0,0.000885,0,0
0:2:5.095,464.982,26.3104,0,0.000885,0,0
0:2:5.801,468.442,26.5103,0,0.000885,0,0
0:2:6.491,471.845,26.7034,0,0.000885,0,0
0:2:7.198,474.776,26.8689,0,0.000885,0,0
0:2:7.900,477.414,27.0137,0,0.000885,0,0
0:2:8.589,480.172,27.1722,0,0.000885,0,0
0:2:9.300,483.984,27.386,0,0.000885,0,0
0:2:9.997,487.209,27.5721,0,0.000885,0,0
0:2:10.692,490.434,27.7514,0,0.000885,0,0
0:2:11.406,493.308,27.9169,0,0.000885,0,0
0:2:12.106,495.714,28.0548,0,0.000885,0,0
0:2:12.801,498.881,28.234,0,0.000885,0,0
0:2:13.493,502.516,28.434,0,0.000885,0,0
0:2:14.198,505.509,28.6063,0,0.000885,0,0
0:2:14.896,508.734,28.7856,0,0.000885,0,0
0:2:15.598,511.901,28.9649,0,0.000885,0,0
0:2:16.303,514.366,29.1097,0,0.000885,0,0
0:2:17.007,518.12,29.3165,0,0.000885,0,0
0:2:17.709,521.051,29.4889,0,0.000885,0,0
0:2:18.398,523.925,29.6475,0,0.000885,0,0
0:2:19.099,526.741,29.806,0,0.000885,0,0
0:2:19.792,530.375,30.0129,0,0.000885,0,0
0:2:20.489,533.075,30.1646,0,0.000885,0,0
0:2:21.192,536.358,30.3507,0,0.000885,0,0
0:2:21.898,539.645,30.5369,0,0.000885,0,0
0:2:22.600,542.634,30.7092,0,0.000885,0,0
0:2:23.294,545.508,30.8678,0,0.000885,0,0
0:2:23.994,548.501,31.0402,0,0.000885,0,0
0:2:24.685,551.433,31.2057,0,0.000885,0,0
0:2:25.387,554.6,31.3849,0,0.000885,0,0
0:2:26.082,557.825,31.5642,0,0.000885,0,0
0:2:26.785,560.934,31.7435,0,0.000885,0,0
0:2:27.486,564.043,31.9158,0,0.000885,0,0
0:2:28.186,566.681,32.0675,0,0.000885,0,0
0:2:28.887,568.91,32.1916,0,0.000885,0,0
0:2:29.582,572.135,32.3778,0,0.000885,0,0
0:2:30.273,576.592,32.626,0,0.000885,0,0
0:2:30.966,578.998,32.7639,0,0.000885,0,0
0:2:31.671,581.694,32.9156,0,0.000885,0,0
0:2:32.372,585.155,33.1155,0,0.000885,0,0
0:2:33.065,587.561,33.2465,0,0.000885,0,0
0:2:33.759,589.968,33.3844,0,0.000885,0,0
0:2:34.452,593.255,33.5706,0,0.000885,0,0
0:2:35.148,596.6,33.7636,0,0.000885,0,0
0:2:35.842,599.829,33.9429,0,0.000885,0,0
0:2:36.545,603.054,34.129,0,0.000885,0,0
0:2:37.251,606.284,34.3083,0,0.000885,0,0
0:2:37.954,609.687,34.5014,0,0.000885,0,0
0:2:38.648,612.449,34.6599,0,0.000885,0,0
0:2:39.347,614.735,34.7841,0,0.000885,0,0
0:2:40.041,617.262,34.9288,0,0.000885,0,0
0:2:40.735,618.08,34.9771,0,0.000885,0,0
0:2:41.444,619.668,35.0667,0,0.000885,0,0
0:2:42.147,620.901,35.1357,0,0.000885,0,0
0:2:42.842,617.729,34.9564,0,0.000885,0,0
0:2:43.536,613.094,34.6944,0,0.000885,0,0
0:2:44.226,608.926,34.46,0,0.000885,0,0
0:2:44.922,609.687,34.5014,0,0.000885,0,0
0:2:45.613,613.267,34.7013,0,0.000885,0,0
0:2:46.315,616.968,34.9151,0,0.000885,0,0
0:2:47.018,620.665,35.1219,0,0.000885,0,0
0:2:47.718,625.891,35.4184,0,0.000885,0,0
0:2:48.413,630.642,35.6873,0,0.000885,0,0
0:2:49.111,635.691,35.9699,0,0.000885,0,0
0:2:49.803,640.504,36.2457,0,0.000885,0,0
0:2:50.496,641.972,36.3285,0,0.000885,0,0
0:2:51.194,645.086,36.5077,0,0.000885,0,0
0:2:51.904,649.254,36.7422,0,0.000885,0,0
0:2:52.607,647.078,36.6181,0,0.000885,0,0
0:2:53.303,650.779,36.8249,0,0.000885,0,0
0:2:53.991,637.101,36.0527,0,0.000885,0,0
0:2:54.686,632.875,35.8114,0,0.000885,0,0
0:2:55.408,632.172,35.7769,0,0.000885,0,0
0:2:56.100,626.479,35.4528,0,0.000885,0,0
0:2:56.501,553.252,31.3091,0,0.000885,0,0

File: DataFile2021-06-30_051847.csv
Test ID:,Date Tested:,Time:,Test Type:,Diameter Avg. (mm):,Cyl. Corr. Factor:,Height (mm):,Age (days):,Weight (kN):,Break Type:,Ramp Rate (MPa/s):,Load at Break (kN):,Stress at Break (MPa):
12,6/30/2021,05:18,Cylinder,150,1,300,0,3.6,3,0.24,671.26,37.98
Sample Time,Load (kN),Stress (MPa),Long. Strain,Trans. Strain,Chan1 Deflection (mm),Chan2 Deflection (mm)
0:0:15.266,8.62065,0.489528,0,0.000885,0,0
0:0:15.965,17.9486,1.01353,0,0.000885,0,0
0:0:16.657,17.1257,0.972161,0,0.000885,0,0
0:0:17.347,16.9522,0.958371,0,0.000885,0,0
0:0:18.056,17.4192,0.98595,0,0.000885,0,0
0:0:18.759,19.0606,1.07558,0,0.000885,0,0
0:0:19.453,21.9342,1.24106,0,0.000885,0,0
0:0:20.153,26.2178,1.48237,0,0.000885,0,0
0:0:20.852,31.142,1.76506,0,0.000885,0,0
0:0:21.560,35.5413,2.01327,0,0.000885,0,0
0:0:22.264,37.067,2.09601,0,0.000885,0,0
0:0:22.959,39.7671,2.24769,0,0.000885,0,0
0:0:23.658,42.1113,2.38559,0,0.000885,0,0
0:0:24.357,45.1628,2.55795,0,0.000885,0,0
0:0:25.059,49.0327,2.77169,0,0.000885,0,0
0:0:25.760,52.5513,2.97164,0,0.000885,0,0
0:0:26.468,55.0156,3.11643,0,0.000885,0,0
0:0:27.174,58.1827,3.29569,0,0.000885,0,0
0:0:27.874,61.2876,3.46806,0,0.000885,0,0
0:0:28.568,64.3391,3.64043,0,0.000885,0,0
0:0:29.265,67.2126,3.80591,0,0.000885,0,0
0:0:29.964,70.2063,3.97138,0,0.000885,0,0
0:0:30.660,73.3111,4.15064,0,0.000885,0,0
0:0:31.370,76.8341,4.35059,0,0.000885,0,0
0:0:32.075,79.7655,4.51607,0,0.000885,0,0
0:0:32.775,82.5812,4.67465,0,0.000885,0,0
0:0:33.475,86.1576,4.87459,0,0.000885,0,0
0:0:34.167,89.2091,5.04696,0,0.000885,0,0
0:0:34.866,92.5497,5.24002,0,0.000885,0,0
0:0:35.566,95.2498,5.3917,0,0.000885,0,0
0:0:36.275,97.9454,5.54338,0,0.000885,0,0
0:0:36.983,101.7,5.75712,0,0.000885,0,0
0:0:37.678,104.573,5.9157,0,0.000885,0,0
0:0:38.377,108.034,6.11565,0,0.000885,0,0
0:0:39.074,110.734,6.26733,0,0.000885,0,0
0:0:39.768,113.839,6.4397,0,0.000885,0,0
0:0:40.470,117.068,6.62586,0,0.000885,0,0
0:0:41.180,120.351,6.81202,0,0.000885,0,0
0:0:41.886,123.576,6.99128,0,0.000885,0,0
0:0:42.586,125.983,7.12918,0,0.000885,0,0
0:0:43.279,128.62,7.28086,0,0.000885,0,0
0:0:43.978,132.139,7.48081,0,0.000885,0,0
0:0:44.676,135.07,7.64629,0,0.000885,0,0
0:0:45.370,138.945,7.86002,0,0.000885,0,0
0:0:46.078,141.76,8.0186,0,0.000885,0,0
0:0:46.783,144.572,8.18408,0,0.000885,0,0
0:0:47.485,147.387,8.34266,0,0.000885,0,0
0:0:48.184,150.732,8.52881,0,0.000885,0,0
0:0:48.877,154.251,8.72876,0,0.000885,0,0
0:0:49.576,157.596,8.91492,0,0.000885,0,0
0:0:50.273,160.527,9.08729,0,0.000885,0,0
0:0:50.977,163.223,9.23897,0,0.000885,0,0
0:0:51.684,166.159,9.40445,0,0.000885,0,0
0:0:52.386,169.971,9.61819,0,0.000885,0,0
0:0:53.083,172.315,9.74919,0,0.000885,0,0
0:0:53.780,175.892,9.95603,0,0.000885,0,0
0:0:54.475,178.592,10.1077,0,0.000885,0,0
0:0:55.174,182.11,10.3077,0,0.000885,0,0
0:0:55.872,184.868,10.4593,0,0.000885,0,0
0:0:56.581,187.915,10.6317,0,0.000885,0,0
0:0:57.288,191.376,10.8317,0,0.000885,0,0
0:0:57.979,194.543,11.0109,0,0.000885,0,0
0:0:58.670,197.83,11.1971,0,0.000885,0,0
0:0:59.364,200.641,11.3557,0,0.000885,0,0
0:1:0.056,203.457,11.5142,0,0.000885,0,0
0:1:0.756,206.331,11.6728,0,0.000885,0,0
0:1:1.459,210.027,11.8866,0,0.000885,0,0
0:1:2.154,212.727,12.0382,0,0.000885,0,0
0:1:2.856,215.601,12.2037,0,0.000885,0,0
0:1:3.560,218.884,12.383,0,0.000885,0,0
0:1:4.256,221.993,12.5622,0,0.000885,0,0
0:1:4.959,224.279,12.6932,0,0.000885,0,0
0:1:5.655,228.385,12.9208,0,0.000885,0,0
0:1:6.360,231.904,13.1207,0,0.000885,0,0
0:1:7.060,234.897,13.2931,0,0.000885,0,0
0:1:7.760,237.299,13.431,0,0.000885,0,0
0:1:8.449,240.587,13.6171,0,0.000885,0,0
0:1:9.144,243.166,13.7619,0,0.000885,0,0
0:1:9.851,246.627,13.955,0,0.000885,0,0
0:1:10.543,249.501,14.1205,0,0.000885,0,0
0:1:11.248,252.841,14.3066,0,0.000885,0,0
0:1:11.947,255.773,14.4721,0,0.000885,0,0
0:1:12.642,258.94,14.6514,0,0.000885,0,0
0:1:13.345,262.343,14.8444,0,0.000885,0,0
0:1:14.043,265.63,15.0306,0,0.000885,0,0
0:1:14.738,268.797,15.2098,0,0.000885,0,0
0:1:15.447,271.902,15.3891,0,0.000885,0,0
0:1:16.158,274.131,15.5132,0,0.000885,0,0
0:1:16.861,277.124,15.6787,0,0.000885,0,0
0:1:17.559,280.879,15.8924,0,0.000885,0,0
0:1:18.257,284.161,16.0786,0,0.000885,0,0
0:1:18.949,286.919,16.2372,0,0.000885,0,0
0:1:19.647,290.086,16.4164,0,0.000885,0,0
0:1:20.338,293.253,16.5957,0,0.000885,0,0
0:1:21.043,295.833,16.7405,0,0.000885,0,0
0:1:21.743,299.116,16.9266,0,0.000885,0,0
0:1:22.460,302.577,17.1197,0,0.000885,0,0
0:1:23.162,305.686,17.2989,0,0.000885,0,0
0:1:23.849,309.031,17.4851,0,0.000885,0,0
0:1:24.564,311.727,17.6368,0,0.000885,0,0
0:1:25.256,314.133,17.7747,0,0.000885,0,0
0:1:25.954,317.888,17.9884,0,0.000885,0,0
0:1:26.660,321.113,18.1746,0,0.000885,0,0
0:1:27.365,324.395,18.3538,0,0.000885,0,0
0:1:28.057,326.975,18.5055,0,0.000885,0,0
0:1:28.760,329.907,18.671,0,0.000885,0,0
0:1:29.460,333.31,18.8641,0,0.000885,0,0
0:1:30.150,336.535,19.0433,0,0.000885,0,0
0:1:30.846,339.995,19.2433,0,0.000885,0,0
0:1:31.550,342.811,19.4018,0,0.000885,0,0
0:1:32.250,345.569,19.5535,0,0.000885,0,0
0:1:32.950,348.265,19.7052,0,0.000885,0,0
0:1:33.645,351.432,19.8845,0,0.000885,0,0
0:1:34.347,355.013,20.0913,0,0.000885,0,0
0:1:35.045,358.238,20.2706,0,0.000885,0,0
0:1:35.740,360.644,20.4085,0,0.000885,0,0
0:1:36.444,364.22,20.6084,0,0.000885,0,0
0:1:37.146,367.152,20.7739,0,0.000885,0,0
0:1:37.843,370.964,20.9945,0,0.000885,0,0
0:1:38.530,373.664,21.1462,0,0.000885,0,0
0:1:39.223,376.538,21.3048,0,0.000885,0,0
0:1:39.918,379.585,21.4772,0,0.000885,0,0
0:1:40.615,382.694,21.6564,0,0.000885,0,0
0:1:41.319,385.625,21.8219,0,0.000885,0,0
0:1:42.017,388.09,21.9598,0,0.000885,0,0
0:1:42.708,391.844,22.1735,0,0.000885,0,0
0:1:43.404,395.127,22.3597,0,0.000885,0,0
0:1:44.092,397.827,22.5114,0,0.000885,0,0
0:1:44.787,401.287,22.7113,0,0.000885,0,0
0:1:45.482,404.103,22.8699,0,0.000885,0,0
0:1:46.186,406.567,23.0078,0,0.000885,0,0
0:1:46.887,409.614,23.1802,0,0.000885,0,0
0:1:47.579,412.839,23.3594,0,0.000885,0,0
0:1:48.271,416.714,23.5801,0,0.000885,0,0
0:1:48.966,419.352,23.7318,0,0.000885,0,0
0:1:49.655,422.928,23.9317,0,0.000885,0,0
0:1:50.355,425.686,24.0903,0,0.000885,0,0
0:1:51.062,428.853,24.2695,0,0.000885,0,0
0:1:51.762,431.611,24.4212,0,0.000885,0,0
0:1:52.459,434.716,24.6005,0,0.000885,0,0
0:1:53.149,437.883,24.7798,0,0.000885,0,0
0:1:53.850,441.228,24.9659,0,0.000885,0,0
0:1:54.542,444.159,25.1314,0,0.000885,0,0
0:1:55.253,447.269,25.3107,0,0.000885,0,0
0:1:55.964,449.969,25.4623,0,0.000885,0,0
0:1:56.667,453.545,25.6623,0,0.000885,0,0
0:1:57.362,456.77,25.8484,0,0.000885,0,0
0:1:58.054,459.47,26.0001,0,0.000885,0,0
0:1:58.755,462.869,26.1932,0,0.000885,0,0
0:1:59.443,465.92,26.3656,0,0.000885,0,0
0:2:0.138,468.442,26.5103,0,0.000885,0,0
0:2:0.830,471.489,26.6827,0,0.000885,0,0
0:2:1.538,475.07,26.8827,0,0.000885,0,0
0:2:2.239,478.353,27.0688,0,0.000885,0,0
0:2:2.929,480.817,27.2067,0,0.000885,0,0
0:2:3.621,484.571,27.4204,0,0.000885,0,0
0:2:4.314,487.503,27.5859,0,0.000885,0,0
0:2:5.005,490.261,27.7445,0,0.000885,0,0
0:2:5.705,493.134,27.9031,0,0.000885,0,0
0:2:6.411,496.946,28.1237,0,0.000885,0,0
0:2:7.106,499.642,28.2754,0,0.000885,0,0
0:2:7.800,501.697,28.3926,0,0.000885,0,0
0:2:8.493,505.509,28.6063,0,0.000885,0,0
0:2:9.182,509.321,28.8201,0,0.000885,0,0
0:2:9.876,511.55,28.9511,0,0.000885,0,0
0:2:10.571,514.775,29.1303,0,0.000885,0,0
0:2:11.276,518.12,29.3165,0,0.000885,0,0
0:2:11.978,520.936,29.482,0,0.000885,0,0
0:2:12.670,524.454,29.675,0,0.000885,0,0
0:2:13.358,527.15,29.8336,0,0.000885,0,0
0:2:14.053,530.259,30.006,0,0.000885,0,0
0:2:14.765,533.368,30.1852,0,0.000885,0,0
0:2:15.466,536.829,30.3783,0,0.000885,0,0
0:2:16.169,539.351,30.5231,0,0.000885,0,0
0:2:16.870,542.928,30.723,0,0.000885,0,0
0:2:17.566,545.334,30.8609,0,0.000885,0,0
0:2:18.258,548.439,31.0333,0,0.000885,0,0
0:2:18.957,551.548,31.2126,0,0.000885,0,0
0:2:19.651,555.596,31.4401,0,0.000885,0,0
0:2:20.344,558.648,31.6125,0,0.000885,0,0
0:2:21.049,561.108,31.7504,0,0.000885,0,0
0:2:21.750,564.217,31.9296,0,0.000885,0,0
0:2:22.452,566.859,32.0744,0,0.000885,0,0
0:2:23.150,569.906,32.2468,0,0.000885,0,0
0:2:23.847,574.248,32.495,0,0.000885,0,0
0:2:24.538,576.77,32.6398,0,0.000885,0,0
0:2:25.228,579.528,32.7915,0,0.000885,0,0
0:2:25.932,582.753,32.9776,0,0.000885,0,0
0:2:26.637,585.626,33.1362,0,0.000885,0,0
0:2:27.331,588.264,33.2879,0,0.000885,0,0
0:2:28.028,592.081,33.5016,0,0.000885,0,0
0:2:28.721,595.835,33.7154,0,0.000885,0,0
0:2:29.415,598.655,33.8739,0,0.000885,0,0
0:2:30.114,601.119,34.0187,0,0.000885,0,0
0:2:30.813,603.935,34.1773,0,0.000885,0,0
0:2:31.520,607.574,34.3842,0,0.000885,0,0
0:2:32.223,610.394,34.5427,0,0.000885,0,0
0:2:32.916,613.623,34.722,0,0.000885,0,0
0:2:33.613,616.323,34.8737,0,0.000885,0,0
0:2:34.309,619.49,35.0529,0,0.000885,0,0
0:2:35.002,622.836,35.246,0,0.000885,0,0
0:2:35.710,625.598,35.4046,0,0.000885,0,0
0:2:36.413,628.471,35.5632,0,0.000885,0,0
0:2:37.113,631.994,35.7631,0,0.000885,0,0
0:2:37.809,634.872,35.9286,0,0.000885,0,0
0:2:38.503,637.982,36.1009,0,0.000885,0,0
0:2:39.198,640.975,36.2733,0,0.000885,0,0
0:2:39.896,644.378,36.4664,0,0.000885,0,0
0:2:40.593,647.198,36.625,0,0.000885,0,0
0:2:41.302,650.601,36.818,0,0.000885,0,0
0:2:42.007,653.186,36.9628,0,0.000885,0,0
0:2:42.700,656.295,37.1421,0,0.000885,0,0
0:2:43.397,658.937,37.2868,0,0.000885,0,0
0:2:44.092,661.637,37.4385,0,0.000885,0,0
0:2:44.786,664.453,37.5971,0,0.000885,0,0
0:2:45.484,667.86,37.7902,0,0.000885,0,0
0:2:46.192,669.622,37.8936,0,0.000885,0,0
0:2:46.896,671.263,37.9832,0,0.000885,0,0
0:2:47.590,671.557,38.0039,0,0.000885,0,0
0:2:48.282,668.034,37.804,0,0.000885,0,0
0:2:48.976,658.114,37.2386,0,0.000885,0,0
0:2:49.672,633.405,35.8458,0,0.000885,0,0
0:2:50.369,622.311,35.2184,0,0.000885,0,0
0:2:51.074,610.567,34.5496,0,0.000885,0,0
0:2:51.775,589.732,33.3706,0,0.000885,0,0
0:2:52.472,554.715,31.3918,0,0.000885,0,0
0:2:53.166,529.499,29.9646,0,0.000885,0,0
0:2:53.873,517.061,29.2613,0,0.000885,0,0
0:2:54.560,509.264,28.8201,0,0.000885,0,0
0:2:55.252,502.694,28.4478,0,0.000885,0,0
0:2:55.956,487.503,27.5859,0,0.000885,0,0
0:2:56.655,474.074,26.8275,0,0.000885,0,0
0:2:56.974,470.262,26.6138,0,0.000885,0,0