Folder: Experiment-Files (part 65)

File: DataFile2021-07-03_065148.csv
Test ID:,Date Tested:,Time:,Test Type:,Diameter Avg. (mm):,Cyl. Corr. Factor:,Height (mm):,Age (days):,Weight (kN):,Break Type:,Ramp Rate (MPa/s):,Load at Break (kN):,Stress at Break (MPa):
12,7/3/2021,06:51,Cylinder,100,1,200,0,3.6,3,0.25,1000.68,127.41
Sample Time,Load (kN),Stress (MPa),Long. Strain,Trans. Strain,Chan1 Deflection (mm),Chan2 Deflection (mm)
0:0:6.886,6.39209,0.813581,0,0.000885,0,0
0:0:9.076,8.79858,1.11695,0,0.000885,0,0
0:0:11.289,12.8465,1.63406,0,0.000885,0,0
0:0:13.495,17.8863,2.27527,0,0.000885,0,0
0:0:15.691,22.5213,2.86822,0,0.000885,0,0
0:0:17.898,27.1564,3.45427,0,0.000885,0,0
0:0:20.096,31.142,3.96449,0,0.000885,0,0
0:0:22.290,35.7192,4.55054,0,0.000885,0,0
0:0:24.500,39.7048,5.05386,0,0.000885,0,0
0:0:26.690,44.6335,5.68128,0,0.000885,0,0
0:0:28.904,48.3299,6.15012,0,0.000885,0,0
0:0:31.094,53.1385,6.76376,0,0.000885,0,0
0:0:33.300,57.0084,7.26018,0,0.000885,0,0
0:0:35.496,61.7013,7.85313,0,0.000885,0,0
0:0:37.698,65.6291,8.35645,0,0.000885,0,0
0:0:39.896,70.0862,8.92182,0,0.000885,0,0
0:0:42.083,74.1341,9.43892,0,0.000885,0,0
0:0:44.304,78.649,10.0112,0,0.000885,0,0
0:0:46.491,82.6969,10.5283,0,0.000885,0,0
0:0:48.704,87.4476,11.135,0,0.000885,0,0
0:0:50.896,91.4955,11.6521,0,0.000885,0,0
0:0:53.103,96.0104,12.2244,0,0.000885,0,0
0:0:55.301,100.116,12.7484,0,0.000885,0,0
0:0:57.502,104.337,13.2862,0,0.000885,0,0
0:0:59.708,108.505,13.8171,0,0.000885,0,0
0:1:1.896,113.487,14.4514,0,0.000885,0,0
0:1:4.109,117.535,14.9685,0,0.000885,0,0
0:1:6.299,121.525,15.4718,0,0.000885,0,0
0:1:8.508,125.925,16.0303,0,0.000885,0,0
0:1:10.698,130.146,16.5681,0,0.000885,0,0
0:1:12.897,134.425,17.1128,0,0.000885,0,0
0:1:15.100,139.176,17.7195,0,0.000885,0,0
0:1:17.302,143.989,18.3332,0,0.000885,0,0
0:1:19.509,147.739,18.8089,0,0.000885,0,0
0:1:21.699,152.138,19.3743,0,0.000885,0,0
0:1:23.910,156.244,19.8914,0,0.000885,0,0
0:1:26.094,161.115,20.5119,0,0.000885,0,0
0:1:28.311,164.575,20.9532,0,0.000885,0,0
0:1:30.507,169.09,21.5323,0,0.000885,0,0
0:1:32.698,174.014,22.1597,0,0.000885,0,0
0:1:34.906,177.359,22.5803,0,0.000885,0,0
0:1:37.094,182.697,23.2629,0,0.000885,0,0
0:1:39.303,186.803,23.7869,0,0.000885,0,0
0:1:41.498,191.318,24.3592,0,0.000885,0,0
0:1:43.703,195.424,24.8832,0,0.000885,0,0
0:1:45.885,199.996,25.4623,0,0.000885,0,0
0:1:48.102,204.044,25.9794,0,0.000885,0,0
0:1:50.281,208.266,26.5172,0,0.000885,0,0
0:1:52.483,212.14,27.0137,0,0.000885,0,0
0:1:54.688,216.891,27.6135,0,0.000885,0,0
0:1:56.858,221.17,28.1582,0,0.000885,0,0
0:1:59.055,224.809,28.6201,0,0.000885,0,0
0:2:1.230,229.969,29.282,0,0.000885,0,0
0:2:3.423,234.661,29.875,0,0.000885,0,0
0:2:5.597,238.474,30.3645,0,0.000885,0,0
0:2:7.791,241.992,30.8127,0,0.000885,0,0
0:2:9.989,247.21,31.4746,0,0.000885,0,0
0:2:12.175,251.084,31.971,0,0.000885,0,0
0:2:14.386,255.248,32.5019,0,0.000885,0,0
0:2:16.560,259.118,32.9914,0,0.000885,0,0
0:2:18.753,264.046,33.6188,0,0.000885,0,0
0:2:20.922,267.796,34.0946,0,0.000885,0,0
0:2:23.112,272.961,34.7565,0,0.000885,0,0
0:2:25.289,276.421,35.1977,0,0.000885,0,0
0:2:27.507,281.697,35.8665,0,0.000885,0,0
0:2:29.708,285.571,36.3629,0,0.000885,0,0
0:2:31.904,290.086,36.9352,0,0.000885,0,0
0:2:34.104,294.192,37.4592,0,0.000885,0,0
0:2:36.301,298.413,37.997,0,0.000885,0,0
0:2:38.507,302.635,38.5348,0,0.000885,0,0
0:2:40.700,307.27,39.1209,0,0.000885,0,0
0:2:42.882,311.376,39.6449,0,0.000885,0,0
0:2:45.103,316.304,40.2723,0,0.000885,0,0
0:2:47.293,319.703,40.7066,0,0.000885,0,0
0:2:49.480,324.338,41.2927,0,0.000885,0,0
0:2:51.651,327.563,41.7064,0,0.000885,0,0
0:2:53.845,333.136,42.4165,0,0.000885,0,0
0:2:56.017,337.18,42.9337,0,0.000885,0,0
0:2:58.207,341.463,43.4783,0,0.000885,0,0
0:3:0.404,345.805,44.0299,0,0.000885,0,0
0:3:2.610,350.493,44.6298,0,0.000885,0,0
0:3:4.788,354.541,45.14,0,0.000885,0,0
0:3:6.960,358.411,45.6364,0,0.000885,0,0
0:3:9.155,362.988,46.2156,0,0.000885,0,0
0:3:11.325,367.21,46.7533,0,0.000885,0,0
0:3:13.522,370.79,47.2084,0,0.000885,0,0
0:3:15.693,375.715,47.8358,0,0.000885,0,0
0:3:17.892,379.998,48.3805,0,0.000885,0,0
0:3:20.068,383.868,48.8769,0,0.000885,0,0
0:3:22.256,388.912,49.5181,0,0.000885,0,0
0:3:24.447,393.485,50.0973,0,0.000885,0,0
0:3:26.615,397.355,50.5937,0,0.000885,0,0
0:3:28.811,401.639,51.1384,0,0.000885,0,0
0:3:30.984,405.687,51.6555,0,0.000885,0,0
0:3:33.176,410.024,52.2071,0,0.000885,0,0
0:3:35.347,414.659,52.7932,0,0.000885,0,0
0:3:37.539,418.587,53.2965,0,0.000885,0,0
0:3:39.720,423.751,53.9515,0,0.000885,0,0
0:3:41.902,427.443,54.4272,0,0.000885,0,0
0:3:44.107,431.842,54.9857,0,0.000885,0,0
0:3:46.297,436.184,55.5373,0,0.000885,0,0
0:3:48.490,439.996,56.0199,0,0.000885,0,0
0:3:50.707,444.395,56.5853,0,0.000885,0,0
0:3:52.915,449.261,57.1989,0,0.000885,0,0
0:3:55.108,453.252,57.7091,0,0.000885,0,0
0:3:57.320,457.299,58.2262,0,0.000885,0,0
0:3:59.510,461.872,58.8054,0,0.000885,0,0
0:4:1.712,466.565,59.4052,0,0.000885,0,0
0:4:3.918,470.555,59.9154,0,0.000885,0,0
0:4:6.104,474.189,60.3774,0,0.000885,0,0
0:4:8.314,479.469,61.0462,0,0.000885,0,0
0:4:10.505,483.397,61.5495,0,0.000885,0,0
0:4:12.698,487.503,62.0735,0,0.000885,0,0
0:4:14.905,492.605,62.7216,0,0.000885,0,0
0:4:17.089,496.653,63.2387,0,0.000885,0,0
0:4:19.278,500.287,63.7007,0,0.000885,0,0
0:4:21.451,504.393,64.2247,0,0.000885,0,0
0:4:23.651,509.264,64.8383,0,0.000885,0,0
0:4:25.825,513.249,65.3485,0,0.000885,0,0
0:4:28.023,517.884,65.9415,0,0.000885,0,0
0:4:30.215,522.048,66.4724,0,0.000885,0,0
0:4:32.417,526.331,67.017,0,0.000885,0,0
0:4:34.615,530.788,67.5824,0,0.000885,0,0
0:4:36.823,535.068,68.1271,0,0.000885,0,0
0:4:39.017,539.525,68.6925,0,0.000885,0,0
0:4:41.219,543.395,69.1889,0,0.000885,0,0
0:4:43.416,547.972,69.768,0,0.000885,0,0
0:4:45.622,552.958,70.4024,0,0.000885,0,0
0:4:47.822,556.828,70.8988,0,0.000885,0,0
0:4:50.019,561.05,71.4366,0,0.000885,0,0
0:4:52.222,565.213,71.9675,0,0.000885,0,0
0:4:54.416,569.79,72.5466,0,0.000885,0,0
0:4:56.621,574.012,73.0844,0,0.000885,0,0
0:4:58.815,578.118,73.6084,0,0.000885,0,0
0:5:1.020,582.401,74.1531,0,0.000885,0,0
0:5:3.230,587.09,74.753,0,0.000885,0,0
0:5:5.420,591.258,75.2839,0,0.000885,0,0
0:5:7.633,595.599,75.8354,0,0.000885,0,0
0:5:9.824,600.181,76.4146,0,0.000885,0,0
0:5:12.032,604.229,76.9317,0,0.000885,0,0
0:5:14.222,608.512,77.4764,0,0.000885,0,0
0:5:16.424,612.916,78.0418,0,0.000885,0,0
0:5:18.634,617.493,78.6209,0,0.000885,0,0
0:5:20.823,621.252,79.1036,0,0.000885,0,0
0:5:23.029,625.829,79.6827,0,0.000885,0,0
0:5:25.223,629.939,80.2067,0,0.000885,0,0
0:5:27.428,634.517,80.7859,0,0.000885,0,0
0:5:29.622,638.805,81.3375,0,0.000885,0,0
0:5:31.831,642.559,81.8132,0,0.000885,0,0
0:5:34.031,647.078,82.3855,0,0.000885,0,0
0:5:36.221,651.776,82.9853,0,0.000885,0,0
0:5:38.437,656.059,83.53,0,0.000885,0,0
0:5:40.621,660.227,84.0609,0,0.000885,0,0
0:5:42.833,664.805,84.6469,0,0.000885,0,0
0:5:45.019,669.328,85.2192,0,0.000885,0,0
0:5:47.232,673.14,85.7087,0,0.000885,0,0
0:5:49.422,678.074,86.3362,0,0.000885,0,0
0:5:51.624,682.121,86.8533,0,0.000885,0,0
0:5:53.828,686.525,87.4117,0,0.000885,0,0
0:5:56.024,690.222,87.8806,0,0.000885,0,0
0:5:58.234,694.803,88.4666,0,0.000885,0,0
0:6:0.424,699.323,89.0389,0,0.000885,0,0
0:6:2.625,703.428,89.5629,0,0.000885,0,0
0:6:4.827,708.246,90.1765,0,0.000885,0,0
0:6:7.032,711.942,90.6454,0,0.000885,0,0
0:6:9.225,716.871,91.2728,0,0.000885,0,0
0:6:11.431,721.039,91.8037,0,0.000885,0,0
0:6:13.640,725.265,92.3415,0,0.000885,0,0
0:6:15.823,729.495,92.8793,0,0.000885,0,0
0:6:18.043,733.836,93.4378,0,0.000885,0,0
0:6:20.227,738.356,94.01,0,0.000885,0,0
0:6:22.436,742.346,94.5202,0,0.000885,0,0
0:6:24.631,746.514,95.0511,0,0.000885,0,0
0:6:26.825,751.096,95.6303,0,0.000885,0,0
0:6:29.031,755.673,96.2163,0,0.000885,0,0
0:6:31.231,759.489,96.699,0,0.000885,0,0
0:6:33.442,764.538,97.3471,0,0.000885,0,0
0:6:35.626,768.47,97.8435,0,0.000885,0,0
0:6:37.840,772.46,98.3537,0,0.000885,0,0
0:6:40.024,776.744,98.8984,0,0.000885,0,0
0:6:42.243,781.326,99.4845,0,0.000885,0,0
0:6:44.440,785.494,100.015,0,0.000885,0,0
0:6:46.630,789.599,100.532,0,0.000885,0,0
0:6:48.828,794.59,101.174,0,0.000885,0,0
0:6:51.032,798.58,101.677,0,0.000885,0,0
0:6:53.239,802.926,102.229,0,0.000885,0,0
0:6:55.420,807.503,102.815,0,0.000885,0,0
0:6:57.622,811.494,103.325,0,0.000885,0,0
0:6:59.835,815.897,103.883,0,0.000885,0,0
0:7:2.042,819.95,104.4,0,0.000885,0,0
0:7:4.245,824.527,104.98,0,0.000885,0,0
0:7:6.430,828.753,105.517,0,0.000885,0,0
0:7:8.635,833.099,106.076,0,0.000885,0,0
0:7:10.828,837.204,106.593,0,0.000885,0,0
0:7:13.046,841.724,107.172,0,0.000885,0,0
0:7:15.238,845.954,107.71,0,0.000885,0,0
0:7:17.436,850.353,108.268,0,0.000885,0,0
0:7:19.634,854.348,108.779,0,0.000885,0,0
0:7:21.826,859.041,109.378,0,0.000885,0,0
0:7:24.033,863.266,109.916,0,0.000885,0,0
0:7:26.234,867.377,110.44,0,0.000885,0,0
0:7:28.445,872.541,111.095,0,0.000885,0,0
0:7:30.636,876.184,111.557,0,0.000885,0,0
0:7:32.850,880.877,112.157,0,0.000885,0,0
0:7:35.036,885.223,112.709,0,0.000885,0,0
0:7:37.249,889.622,113.267,0,0.000885,0,0
0:7:39.443,893.323,113.743,0,0.000885,0,0
0:7:41.636,898.078,114.35,0,0.000885,0,0
0:7:43.844,901.953,114.839,0,0.000885,0,0
0:7:46.037,906.823,115.46,0,0.000885,0,0
0:7:48.241,911.285,116.025,0,0.000885,0,0
0:7:50.435,914.981,116.501,0,0.000885,0,0
0:7:52.648,919.737,117.107,0,0.000885,0,0
0:7:54.835,924.082,117.659,0,0.000885,0,0
0:7:57.045,928.308,118.197,0,0.000885,0,0
0:7:59.244,932.708,118.755,0,0.000885,0,0
0:8:1.438,936.115,119.19,0,0.000885,0,0
0:8:3.643,941.337,119.852,0,0.000885,0,0
0:8:5.835,945.856,120.431,0,0.000885,0,0
0:8:8.045,949.495,120.893,0,0.000885,0,0
0:8:10.238,954.019,121.472,0,0.000885,0,0
0:8:12.445,958.187,122.003,0,0.000885,0,0
0:8:14.637,962.938,122.603,0,0.000885,0,0
0:8:16.843,967.399,123.175,0,0.000885,0,0
0:8:19.049,971.509,123.699,0,0.000885,0,0
0:8:21.228,976.029,124.271,0,0.000885,0,0
0:8:23.440,980.197,124.802,0,0.000885,0,0
0:8:25.642,984.307,125.326,0,0.000885,0,0
0:8:27.852,988.355,125.843,0,0.000885,0,0
0:8:30.036,994.342,126.602,0,0.000885,0,0
0:8:32.241,997.981,127.07,0,0.000885,0,0
0:8:34.434,996.633,126.898,0,0.000885,0,0
0:8:35.414,794.826,101.201,0,0.000885,0,0

File: DataFile2021-07-03_070751.csv
Test ID:,Date Tested:,Time:,Test Type:,Diameter Avg. (mm):,Cyl. Corr. Factor:,Height (mm):,Age (days):,Weight (kN):,Break Type:,Ramp Rate (MPa/s):,Load at Break (kN):,Stress at Break (MPa):
12,7/3/2021,07:07,Cylinder,100,1,200,0,3.6,3,0.25,1020.94,129.99
Sample Time,Load (kN),Stress (MPa),Long. Strain,Trans. Strain,Chan1 Deflection (mm),Chan2 Deflection (mm)
0:0:18.229,5.63145,0.717055,0,0.000885,0,0
0:0:20.440,9.5014,1.20658,0,0.000885,0,0
0:0:22.631,13.4915,1.71679,0,0.000885,0,0
0:0:24.845,18.1799,2.31664,0,0.000885,0,0
0:0:27.037,22.637,2.88201,0,0.000885,0,0
0:0:29.248,27.0986,3.44738,0,0.000885,0,0
0:0:31.446,31.2043,3.97138,0,0.000885,0,0
0:0:33.645,35.2477,4.48849,0,0.000885,0,0
0:0:35.856,39.8249,5.06765,0,0.000885,0,0
0:0:38.044,44.3399,5.64681,0,0.000885,0,0
0:0:40.261,48.6191,6.19149,0,0.000885,0,0
0:0:42.450,53.0184,6.74997,0,0.000885,0,0
0:0:44.661,57.1241,7.27397,0,0.000885,0,0
0:0:46.853,61.3499,7.81176,0,0.000885,0,0
0:0:49.056,66.1584,8.42539,0,0.000885,0,0
0:0:51.256,70.0862,8.92182,0,0.000885,0,0
0:0:53.446,73.8983,9.41134,0,0.000885,0,0
0:0:55.662,79.0627,10.0663,0,0.000885,0,0
0:0:57.848,83.2841,10.6041,0,0.000885,0,0
0:1:0.061,86.8026,11.0523,0,0.000885,0,0
0:1:2.252,91.7312,11.6797,0,0.000885,0,0
0:1:4.452,96.3618,12.2727,0,0.000885,0,0
0:1:6.652,99.9426,12.7277,0,0.000885,0,0
0:1:8.842,104.458,13.3,0,0.000885,0,0
0:1:11.051,108.679,13.8378,0,0.000885,0,0
0:1:13.241,113.372,14.4376,0,0.000885,0,0
0:1:15.456,117.713,14.9892,0,0.000885,0,0
0:1:17.636,121.757,15.4994,0,0.000885,0,0
0:1:19.850,126.04,16.051,0,0.000885,0,0
0:1:22.033,130.555,16.6233,0,0.000885,0,0
0:1:24.247,134.603,17.1404,0,0.000885,0,0
0:1:26.441,138.709,17.6575,0,0.000885,0,0
0:1:28.641,143.402,18.2573,0,0.000885,0,0
0:1:30.852,147.801,18.8158,0,0.000885,0,0
0:1:33.045,152.196,19.3812,0,0.000885,0,0
0:1:35.251,156.186,19.8845,0,0.000885,0,0
0:1:37.451,161.524,20.5671,0,0.000885,0,0
0:1:39.656,164.807,20.9807,0,0.000885,0,0
0:1:41.845,168.797,21.491,0,0.000885,0,0
0:1:44.050,174.135,22.1735,0,0.000885,0,0
0:1:46.255,178.12,22.6769,0,0.000885,0,0
0:1:48.449,182.64,23.256,0,0.000885,0,0
0:1:50.662,186.452,23.7386,0,0.000885,0,0
0:1:52.851,191.082,24.3316,0,0.000885,0,0
0:1:55.055,195.246,24.8625,0,0.000885,0,0
0:1:57.246,199.529,25.4072,0,0.000885,0,0
0:1:59.446,203.164,25.8691,0,0.000885,0,0
0:2:1.648,208.266,26.5172,0,0.000885,0,0
0:2:3.849,212.665,27.0757,0,0.000885,0,0
0:2:6.051,216.597,27.579,0,0.000885,0,0
0:2:8.240,221.464,28.1996,0,0.000885,0,0
0:2:10.441,225.569,28.7236,0,0.000885,0,0
0:2:12.623,229.853,29.2682,0,0.000885,0,0
0:2:14.827,233.781,29.7647,0,0.000885,0,0
0:2:17.003,238.883,30.4128,0,0.000885,0,0
0:2:19.186,242.753,30.9092,0,0.000885,0,0
0:2:21.369,246.979,31.447,0,0.000885,0,0
0:2:23.542,251.142,31.9779,0,0.000885,0,0
0:2:25.741,256.129,32.6122,0,0.000885,0,0
0:2:27.940,260.114,33.1155,0,0.000885,0,0
0:2:30.149,264.571,33.6878,0,0.000885,0,0
0:2:32.340,267.796,34.0946,0,0.000885,0,0
0:2:34.540,272.667,34.7151,0,0.000885,0,0
0:2:36.749,277.182,35.2943,0,0.000885,0,0
0:2:38.940,281.288,35.8114,0,0.000885,0,0
0:2:41.143,285.158,36.3078,0,0.000885,0,0
0:2:43.317,290.322,36.9628,0,0.000885,0,0
0:2:45.516,294.134,37.4523,0,0.000885,0,0
0:2:47.687,299.174,38.0935,0,0.000885,0,0
0:2:49.882,302.991,38.5762,0,0.000885,0,0
0:2:52.057,307.328,39.1277,0,0.000885,0,0
0:2:54.261,311.785,39.7,0,0.000885,0,0
0:2:56.439,316.184,40.2585,0,0.000885,0,0
0:2:58.640,319.938,40.7342,0,0.000885,0,0
0:3:0.848,323.986,41.2513,0,0.000885,0,0
0:3:3.021,328.795,41.865,0,0.000885,0,0
0:3:5.216,332.665,42.3545,0,0.000885,0,0
0:3:7.384,337.122,42.9268,0,0.000885,0,0
0:3:9.588,341.993,43.5404,0,0.000885,0,0
0:3:11.763,346.156,44.0713,0,0.000885,0,0
0:3:13.946,350.555,44.6367,0,0.000885,0,0
0:3:16.135,354.719,45.1676,0,0.000885,0,0
0:3:18.311,359.118,45.726,0,0.000885,0,0
0:3:20.508,362.988,46.2156,0,0.000885,0,0
0:3:22.675,367.33,46.7671,0,0.000885,0,0
0:3:24.876,371.435,47.2911,0,0.000885,0,0
0:3:27.050,375.715,47.8358,0,0.000885,0,0
0:3:29.256,380.292,48.4219,0,0.000885,0,0
0:3:31.448,384.335,48.9321,0,0.000885,0,0
0:3:33.654,388.912,49.5181,0,0.000885,0,0
0:3:35.848,393.837,50.1456,0,0.000885,0,0
0:3:38.019,397.591,50.6213,0,0.000885,0,0
0:3:40.214,401.461,51.1177,0,0.000885,0,0
0:3:42.387,405.567,51.6417,0,0.000885,0,0
0:3:44.581,409.85,52.1864,0,0.000885,0,0
0:3:46.752,414.365,52.7587,0,0.000885,0,0
0:3:48.959,418.587,53.2965,0,0.000885,0,0
0:3:51.161,423.164,53.8756,0,0.000885,0,0
0:3:53.363,427.269,54.3996,0,0.000885,0,0
0:3:55.562,432.194,55.0271,0,0.000885,0,0
0:3:57.751,436.242,55.5442,0,0.000885,0,0
0:3:59.957,440.347,56.0682,0,0.000885,0,0
0:4:2.158,444.747,56.6266,0,0.000885,0,0
0:4:4.362,449.088,57.1782,0,0.000885,0,0
0:4:6.547,453.545,57.7505,0,0.000885,0,0
0:4:8.767,457.882,58.3021,0,0.000885,0,0
0:4:10.958,462.224,58.8536,0,0.000885,0,0
0:4:13.140,466.801,59.4328,0,0.000885,0,0
0:4:15.336,470.907,59.9568,0,0.000885,0,0
0:4:17.509,474.95,60.4739,0,0.000885,0,0
0:4:19.709,479.234,61.0186,0,0.000885,0,0
0:4:21.882,483.161,61.515,0,0.000885,0,0
0:4:24.078,487.854,62.1149,0,0.000885,0,0
0:4:26.262,492.311,62.6802,0,0.000885,0,0
0:4:28.467,496.653,63.2387,0,0.000885,0,0
0:4:30.653,500.816,63.7627,0,0.000885,0,0
0:4:32.825,504.806,64.2729,0,0.000885,0,0
0:4:35.023,509.264,64.8383,0,0.000885,0,0
0:4:37.200,513.369,65.3623,0,0.000885,0,0
0:4:39.400,518.12,65.969,0,0.000885,0,0
0:4:41.568,522.577,66.5344,0,0.000885,0,0
0:4:43.756,526.563,67.0446,0,0.000885,0,0
0:4:45.956,531.082,67.6169,0,0.000885,0,0
0:4:48.149,534.716,68.0788,0,0.000885,0,0
0:4:50.354,539.761,68.7269,0,0.000885,0,0
0:4:52.528,543.982,69.2647,0,0.000885,0,0
0:4:54.730,547.856,69.7543,0,0.000885,0,0
0:4:56.901,552.371,70.3265,0,0.000885,0,0
0:4:59.102,556.65,70.8781,0,0.000885,0,0
0:5:1.276,561.108,71.4435,0,0.000885,0,0
0:5:3.465,564.982,71.933,0,0.000885,0,0
0:5:5.654,569.261,72.4777,0,0.000885,0,0
0:5:7.860,574.012,73.0844,0,0.000885,0,0
0:5:10.059,578.118,73.6084,0,0.000885,0,0
0:5:12.261,582.108,74.1186,0,0.000885,0,0
0:5:14.462,587.09,74.753,0,0.000885,0,0
0:5:16.650,591.436,75.3045,0,0.000885,0,0
0:5:18.879,595.368,75.8079,0,0.000885,0,0
0:5:21.075,600.354,76.4422,0,0.000885,0,0
0:5:23.282,604.291,76.9386,0,0.000885,0,0
0:5:25.475,608.517,77.4764,0,0.000885,0,0
0:5:27.655,612.507,77.9866,0,0.000885,0,0
0:5:29.872,617.262,78.5933,0,0.000885,0,0
0:5:32.059,621.43,79.1242,0,0.000885,0,0
0:5:34.266,625.949,79.6965,0,0.000885,0,0
0:5:36.470,630.233,80.2412,0,0.000885,0,0
0:5:38.675,634.637,80.8066,0,0.000885,0,0
0:5:40.871,638.689,81.3168,0,0.000885,0,0
0:5:43.061,642.973,81.8683,0,0.000885,0,0
0:5:45.275,647.608,82.4544,0,0.000885,0,0
0:5:47.457,651.54,82.9577,0,0.000885,0,0
0:5:49.674,656.295,83.5645,0,0.000885,0,0
0:5:51.863,660.227,84.0609,0,0.000885,0,0
0:5:54.069,664.222,84.5711,0,0.000885,0,0
0:5:56.266,668.857,85.164,0,0.000885,0,0
0:5:58.477,673.261,85.7225,0,0.000885,0,0
0:6:0.671,677.371,86.2465,0,0.000885,0,0
0:6:2.864,681.948,86.8257,0,0.000885,0,0
0:6:5.065,686.294,87.3842,0,0.000885,0,0
0:6:7.252,690.52,87.9219,0,0.000885,0,0
0:6:9.470,694.51,88.4253,0,0.000885,0,0
0:6:11.651,698.971,88.9975,0,0.000885,0,0
0:6:13.855,703.784,89.6112,0,0.000885,0,0
0:6:16.046,707.952,90.1421,0,0.000885,0,0
0:6:18.238,712.178,90.6798,0,0.000885,0,0
0:6:20.440,716.582,91.2383,0,0.000885,0,0
0:6:22.626,720.63,91.7554,0,0.000885,0,0
0:6:24.831,725.385,92.3622,0,0.000885,0,0
0:6:27.017,729.437,92.8724,0,0.000885,0,0
0:6:29.226,733.779,93.4309,0,0.000885,0,0
0:6:31.408,738.067,93.9755,0,0.000885,0,0
0:6:33.609,742.466,94.534,0,0.000885,0,0
0:6:35.804,746.576,95.058,0,0.000885,0,0
0:6:37.989,750.686,95.582,0,0.000885,0,0
0:6:40.195,755.379,96.175,0,0.000885,0,0
0:6:42.377,759.547,96.7059,0,0.000885,0,0
0:6:44.589,763.951,97.2712,0,0.000885,0,0
0:6:46.769,768.412,97.8366,0,0.000885,0,0
0:6:48.968,772.167,98.3123,0,0.000885,0,0
0:6:51.176,776.864,98.9122,0,0.000885,0,0
0:6:53.389,781.09,99.45,0,0.000885,0,0
0:6:55.589,785.845,100.057,0,0.000885,0,0
0:6:57.775,789.368,100.505,0,0.000885,0,0
0:6:59.980,794.532,101.16,0,0.000885,0,0
0:7:2.182,798.055,101.615,0,0.000885,0,0
0:7:4.390,802.868,102.222,0,0.000885,0,0
0:7:6.571,807.094,102.759,0,0.000885,0,0
0:7:8.778,811.32,103.297,0,0.000885,0,0
0:7:10.978,815.96,103.89,0,0.000885,0,0
0:7:13.171,819.478,104.338,0,0.000885,0,0
0:7:15.386,824.469,104.973,0,0.000885,0,0
0:7:17.579,828.401,105.476,0,0.000885,0,0
0:7:19.789,832.921,106.048,0,0.000885,0,0
0:7:21.979,837.151,106.586,0,0.000885,0,0
0:7:24.199,841.67,107.165,0,0.000885,0,0
0:7:26.385,845.838,107.696,0,0.000885,0,0
0:7:28.589,849.708,108.186,0,0.000885,0,0
0:7:30.784,854.583,108.806,0,0.000885,0,0
0:7:32.979,859.045,109.378,0,0.000885,0,0
0:7:35.185,863.329,109.923,0,0.000885,0,0
0:7:37.385,867.612,110.468,0,0.000885,0,0
0:7:39.594,871.722,110.992,0,0.000885,0,0
0:7:41.776,876.535,111.605,0,0.000885,0,0
0:7:43.989,880.41,112.095,0,0.000885,0,0
0:7:46.183,884.871,112.667,0,0.000885,0,0
0:7:48.389,889.506,113.253,0,0.000885,0,0
0:7:50.585,893.087,113.708,0,0.000885,0,0
0:7:52.787,897.842,114.315,0,0.000885,0,0
0:7:55.001,902.424,114.901,0,0.000885,0,0
0:7:57.189,906.53,115.425,0,0.000885,0,0
0:7:59.396,910.289,115.901,0,0.000885,0,0
0:8:1.590,915.101,116.515,0,0.000885,0,0
0:8:3.803,919.737,117.107,0,0.000885,0,0
0:8:5.988,924.14,117.666,0,0.000885,0,0
0:8:8.192,927.957,118.149,0,0.000885,0,0
0:8:10.393,932.476,118.728,0,0.000885,0,0
0:8:12.584,936.818,119.279,0,0.000885,0,0
0:8:14.791,941.221,119.838,0,0.000885,0,0
0:8:16.985,945.038,120.327,0,0.000885,0,0
0:8:19.204,950.029,120.962,0,0.000885,0,0
0:8:21.392,953.668,121.424,0,0.000885,0,0
0:8:23.604,958.89,122.092,0,0.000885,0,0
0:8:25.795,962.235,122.513,0,0.000885,0,0
0:8:27.990,966.874,123.106,0,0.000885,0,0
0:8:30.192,971.803,123.733,0,0.000885,0,0
0:8:32.386,975.504,124.202,0,0.000885,0,0
0:8:34.604,979.965,124.774,0,0.000885,0,0
0:8:36.781,983.604,125.236,0,0.000885,0,0
0:8:39.003,988.826,125.898,0,0.000885,0,0
0:8:41.183,993.114,126.45,0,0.000885,0,0
0:8:43.391,997.162,126.96,0,0.000885,0,0
0:8:45.594,1001.68,127.539,0,0.000885,0,0
0:8:47.789,1005.61,128.036,0,0.000885,0,0
0:8:49.994,1009.67,128.553,0,0.000885,0,0
0:8:52.189,991.998,126.305,0,0.000885,0,0
0:8:54.403,1018.47,129.677,0,0.000885,0,0
0:8:56.006,924.785,117.749,0,0.000885,0,0